%time,field.header.seq,field.header.stamp,field.header.frame_id,field.orientation.x,field.orientation.y,field.orientation.z,field.orientation.w,field.orientation_covariance0,field.orientation_covariance1,field.orientation_covariance2,field.orientation_covariance3,field.orientation_covariance4,field.orientation_covariance5,field.orientation_covariance6,field.orientation_covariance7,field.orientation_covariance8,field.angular_velocity.x,field.angular_velocity.y,field.angular_velocity.z,field.angular_velocity_covariance0,field.angular_velocity_covariance1,field.angular_velocity_covariance2,field.angular_velocity_covariance3,field.angular_velocity_covariance4,field.angular_velocity_covariance5,field.angular_velocity_covariance6,field.angular_velocity_covariance7,field.angular_velocity_covariance8,field.linear_acceleration.x,field.linear_acceleration.y,field.linear_acceleration.z,field.linear_acceleration_covariance0,field.linear_acceleration_covariance1,field.linear_acceleration_covariance2,field.linear_acceleration_covariance3,field.linear_acceleration_covariance4,field.linear_acceleration_covariance5,field.linear_acceleration_covariance6,field.linear_acceleration_covariance7,field.linear_acceleration_covariance8
1509030496886677660,21778,1509030496886562703,crazyflie/base_link,0.0,0.0,0.0,0.0,-1.0,0.0,0.0,0.0,0.0,0.0,0.0,0.0,0.0,-0.104395914731,-0.0639158661619,-0.254598200212,0.0,0.0,0.0,0.0,0.0,0.0,0.0,0.0,0.0,-0.665815429688,0.09580078125,9.00766845703,0.0,0.0,0.0,0.0,0.0,0.0,0.0,0.0,0.0
1509030496896437908,21779,1509030496896144468,crazyflie/base_link,0.0,0.0,0.0,0.0,-1.0,0.0,0.0,0.0,0.0,0.0,0.0,0.0,0.0,-0.0511326929295,0.0394147841332,-0.33023197517,0.0,0.0,0.0,0.0,0.0,0.0,0.0,0.0,0.0,-0.63228515625,0.184416503906,9.18968994141,0.0,0.0,0.0,0.0,0.0,0.0,0.0,0.0,0.0
1509030496907628871,21780,1509030496907478001,crazyflie/base_link,0.0,0.0,0.0,0.0,-1.0,0.0,0.0,0.0,0.0,0.0,0.0,0.0,0.0,0.0127831732324,0.103330650295,-0.323840388554,0.0,0.0,0.0,0.0,0.0,0.0,0.0,0.0,0.0,-0.572409667969,0.246687011719,9.36931640625,0.0,0.0,0.0,0.0,0.0,0.0,0.0,0.0,0.0
1509030496915453379,21781,1509030496915239499,crazyflie/base_link,0.0,0.0,0.0,0.0,-1.0,0.0,0.0,0.0,0.0,0.0,0.0,0.0,0.0,0.0521979573656,0.104395914731,-0.238619233671,0.0,0.0,0.0,0.0,0.0,0.0,0.0,0.0,0.0,-0.500559082031,0.277822265625,9.51780761719,0.0,0.0,0.0,0.0,0.0,0.0,0.0,0.0,0.0
1509030496926032798,21782,1509030496925873682,crazyflie/base_link,0.0,0.0,0.0,0.0,-1.0,0.0,0.0,0.0,0.0,0.0,0.0,0.0,0.0,0.0841558904465,0.0703074527781,-0.0980043281149,0.0,0.0,0.0,0.0,0.0,0.0,0.0,0.0,0.0,-0.438288574219,0.234711914062,9.61360839844,0.0,0.0,0.0,0.0,0.0,0.0,0.0,0.0,0.0
1509030496935642829,21783,1509030496935467388,crazyflie/base_link,0.0,0.0,0.0,0.0,-1.0,0.0,0.0,0.0,0.0,0.0,0.0,0.0,0.0,0.0830906260105,0.0127831732324,-0.0170442309765,0.0,0.0,0.0,0.0,0.0,0.0,0.0,0.0,0.0,-0.44068359375,0.222736816406,9.64953369141,0.0,0.0,0.0,0.0,0.0,0.0,0.0,0.0,0.0
1509030496946599534,21784,1509030496946156795,crazyflie/base_link,0.0,0.0,0.0,0.0,-1.0,0.0,0.0,0.0,0.0,0.0,0.0,0.0,0.0,0.0490021640575,-0.0031957933081,-0.0106526443603,0.0,0.0,0.0,0.0,0.0,0.0,0.0,0.0,0.0,-0.47900390625,0.17244140625,9.63516357422,0.0,0.0,0.0,0.0,0.0,0.0,0.0,0.0,0.0
1509030496963929374,21785,1509030496963716870,crazyflie/base_link,0.0,0.0,0.0,0.0,-1.0,0.0,0.0,0.0,0.0,0.0,0.0,0.0,0.0,0.0383495196971,-0.00213052887206,-0.0426105774413,0.0,0.0,0.0,0.0,0.0,0.0,0.0,0.0,0.0,-0.586779785156,0.0383203125,9.53217773438,0.0,0.0,0.0,0.0,0.0,0.0,0.0,0.0,0.0
1509030496966401485,21786,1509030496966191243,crazyflie/base_link,0.0,0.0,0.0,0.0,-1.0,0.0,0.0,0.0,0.0,0.0,0.0,0.0,0.0,0.0159789665405,0.0372842552611,-0.0649811305979,0.0,0.0,0.0,0.0,0.0,0.0,0.0,0.0,0.0,-0.696950683594,-0.110170898438,9.41482177734,0.0,0.0,0.0,0.0,0.0,0.0,0.0,0.0,0.0
1509030496974346059,21787,1509030496974123235,crazyflie/base_link,0.0,0.0,0.0,0.0,-1.0,0.0,0.0,0.0,0.0,0.0,0.0,0.0,0.0,0.0,0.0521979573656,-0.0724379816502,0.0,0.0,0.0,0.0,0.0,0.0,0.0,0.0,0.0,-0.76640625,-0.232316894531,9.33099609375,0.0,0.0,0.0,0.0,0.0,0.0,0.0,0.0,0.0
1509030496984995497,21788,1509030496984802123,crazyflie/base_link,0.0,0.0,0.0,0.0,-1.0,0.0,0.0,0.0,0.0,0.0,0.0,0.0,0.0,-0.0458063707494,0.0628506017259,-0.0628506017259,0.0,0.0,0.0,0.0,0.0,0.0,0.0,0.0,0.0,-0.768801269531,-0.289797363281,9.29746582031,0.0,0.0,0.0,0.0,0.0,0.0,0.0,0.0,0.0
1509030496996483949,21789,1509030496996275931,crazyflie/base_link,0.0,0.0,0.0,0.0,-1.0,0.0,0.0,0.0,0.0,0.0,0.0,0.0,0.0,-0.0713727172141,0.0362189908251,-0.0703074527781,0.0,0.0,0.0,0.0,0.0,0.0,0.0,0.0,0.0,-0.716110839844,-0.275427246094,9.31423095703,0.0,0.0,0.0,0.0,0.0,0.0,0.0,0.0,0.0
1509030497005332431,21790,1509030497005139313,crazyflie/base_link,0.0,0.0,0.0,0.0,-1.0,0.0,0.0,0.0,0.0,0.0,0.0,0.0,0.0,-0.066046395034,0.0106526443603,-0.0788295682663,0.0,0.0,0.0,0.0,0.0,0.0,0.0,0.0,0.0,-0.622705078125,-0.232316894531,9.33339111328,0.0,0.0,0.0,0.0,0.0,0.0,0.0,0.0,0.0
1509030497015000679,21791,1509030497014701694,crazyflie/base_link,0.0,0.0,0.0,0.0,-1.0,0.0,0.0,0.0,0.0,0.0,0.0,0.0,0.0,-0.031957933081,-0.0191747598486,-0.0511326929295,0.0,0.0,0.0,0.0,0.0,0.0,0.0,0.0,0.0,-0.553249511719,-0.21076171875,9.3118359375,0.0,0.0,0.0,0.0,0.0,0.0,0.0,0.0,0.0
1509030497024456633,21792,1509030497024296504,crazyflie/base_link,0.0,0.0,0.0,0.0,-1.0,0.0,0.0,0.0,0.0,0.0,0.0,0.0,0.0,-0.0031957933081,-0.0564590151097,0.0138484376684,0.0,0.0,0.0,0.0,0.0,0.0,0.0,0.0,0.0,-0.495769042969,-0.201181640625,9.30225585938,0.0,0.0,0.0,0.0,0.0,0.0,0.0,0.0,0.0
1509030497034325527,21793,1509030497034123818,crazyflie/base_link,0.0,0.0,0.0,0.0,-1.0,0.0,0.0,0.0,0.0,0.0,0.0,0.0,0.0,0.0181094954125,-0.0990695925509,0.0692421883421,0.0,0.0,0.0,0.0,0.0,0.0,0.0,0.0,0.0,-0.428708496094,-0.222736816406,9.27591064453,0.0,0.0,0.0,0.0,0.0,0.0,0.0,0.0,0.0
1509030497064825415,21794,1509030497064665905,crazyflie/base_link,0.0,0.0,0.0,0.0,-1.0,0.0,0.0,0.0,0.0,0.0,0.0,0.0,0.0,-0.102265385859,-0.127831732324,-0.0298274042089,0.0,0.0,0.0,0.0,0.0,0.0,0.0,0.0,0.0,-0.253872070313,-0.510139160156,9.25914550781,0.0,0.0,0.0,0.0,0.0,0.0,0.0,0.0,0.0
1509030497076341555,21795,1509030497076124401,crazyflie/base_link,0.0,0.0,0.0,0.0,-1.0,0.0,0.0,0.0,0.0,0.0,0.0,0.0,0.0,-0.170442309765,-0.120374881272,-0.138484376684,0.0,0.0,0.0,0.0,0.0,0.0,0.0,0.0,0.0,-0.301772460938,-0.570014648438,9.26393554688,0.0,0.0,0.0,0.0,0.0,0.0,0.0,0.0,0.0
1509030497093937060,21796,1509030497093761632,crazyflie/base_link,0.0,0.0,0.0,0.0,-1.0,0.0,0.0,0.0,0.0,0.0,0.0,0.0,0.0,-0.20666130059,-0.112918030219,-0.223705531567,0.0,0.0,0.0,0.0,0.0,0.0,0.0,0.0,0.0,-0.387993164063,-0.550854492188,9.29507080078,0.0,0.0,0.0,0.0,0.0,0.0,0.0,0.0,0.0
1509030497096379566,21797,1509030497096209347,crazyflie/base_link,0.0,0.0,0.0,0.0,-1.0,0.0,0.0,0.0,0.0,0.0,0.0,0.0,0.0,-0.189617069614,-0.108656972475,-0.251402406903,0.0,0.0,0.0,0.0,0.0,0.0,0.0,0.0,0.0,-0.481398925781,-0.435893554688,9.36931640625,0.0,0.0,0.0,0.0,0.0,0.0,0.0,0.0,0.0
1509030497105327963,21798,1509030497105180435,crazyflie/base_link,0.0,0.0,0.0,0.0,-1.0,0.0,0.0,0.0,0.0,0.0,0.0,0.0,0.0,-0.125701203452,-0.0926780059348,-0.183225482997,0.0,0.0,0.0,0.0,0.0,0.0,0.0,0.0,0.0,-0.562829589844,-0.3065625,9.43398193359,0.0,0.0,0.0,0.0,0.0,0.0,0.0,0.0,0.0
1509030497116869454,21799,1509030497116678859,crazyflie/base_link,0.0,0.0,0.0,0.0,-1.0,0.0,0.0,0.0,0.0,0.0,0.0,0.0,0.0,-0.0415453130052,-0.0628506017259,-0.0511326929295,0.0,0.0,0.0,0.0,0.0,0.0,0.0,0.0,0.0,-0.625100097656,-0.225131835938,9.4651171875,0.0,0.0,0.0,0.0,0.0,0.0,0.0,0.0,0.0
1509030497124564416,21800,1509030497124330388,crazyflie/base_link,0.0,0.0,0.0,0.0,-1.0,0.0,0.0,0.0,0.0,0.0,0.0,0.0,0.0,0.0138484376684,-0.00532632218016,0.0543284862376,0.0,0.0,0.0,0.0,0.0,0.0,0.0,0.0,0.0,-0.668210449219,-0.184416503906,9.49864746094,0.0,0.0,0.0,0.0,0.0,0.0,0.0,0.0,0.0
1509030497135925284,21801,1509030497135791958,crazyflie/base_link,0.0,0.0,0.0,0.0,-1.0,0.0,0.0,0.0,0.0,0.0,0.0,0.0,0.0,0.0276968753368,0.0692421883421,0.06711165947,0.0,0.0,0.0,0.0,0.0,0.0,0.0,0.0,0.0,-0.6514453125,-0.148491210938,9.52738769531,0.0,0.0,0.0,0.0,0.0,0.0,0.0,0.0,0.0
1509030497144642517,21802,1509030497144429795,crazyflie/base_link,0.0,0.0,0.0,0.0,-1.0,0.0,0.0,0.0,0.0,0.0,0.0,0.0,0.0,0.0266316109008,0.178964425253,-0.0276968753368,0.0,0.0,0.0,0.0,0.0,0.0,0.0,0.0,0.0,-0.536484375,-0.110170898438,9.54654785156,0.0,0.0,0.0,0.0,0.0,0.0,0.0,0.0,0.0
1509030497154330834,21803,1509030497154173284,crazyflie/base_link,0.0,0.0,0.0,0.0,-1.0,0.0,0.0,0.0,0.0,0.0,0.0,0.0,0.0,0.0585895439817,0.267381373444,-0.162985458713,0.0,0.0,0.0,0.0,0.0,0.0,0.0,0.0,0.0,-0.347277832031,-0.126936035156,9.48906738281,0.0,0.0,0.0,0.0,0.0,0.0,0.0,0.0,0.0
1509030497165163582,21804,1509030497164931676,crazyflie/base_link,0.0,0.0,0.0,0.0,-1.0,0.0,0.0,0.0,0.0,0.0,0.0,0.0,0.0,0.0926780059348,0.281229811112,-0.245010820287,0.0,0.0,0.0,0.0,0.0,0.0,0.0,0.0,0.0,-0.170046386719,-0.138911132813,9.3884765625,0.0,0.0,0.0,0.0,0.0,0.0,0.0,0.0,0.0
1509030497175052444,21805,1509030497174810355,crazyflie/base_link,0.0,0.0,0.0,0.0,-1.0,0.0,0.0,0.0,0.0,0.0,0.0,0.0,0.0,0.101200121423,0.176833896381,-0.243945555851,0.0,0.0,0.0,0.0,0.0,0.0,0.0,0.0,0.0,-0.0646655273438,-0.148491210938,9.27112060547,0.0,0.0,0.0,0.0,0.0,0.0,0.0,0.0,0.0
1509030497184832397,21806,1509030497184595022,crazyflie/base_link,0.0,0.0,0.0,0.0,-1.0,0.0,0.0,0.0,0.0,0.0,0.0,0.0,0.0,0.0639158661619,0.00213052887206,-0.154463343225,0.0,0.0,0.0,0.0,0.0,0.0,0.0,0.0,0.0,-0.067060546875,-0.208366699219,9.14897460938,0.0,0.0,0.0,0.0,0.0,0.0,0.0,0.0,0.0
1509030497194509216,21807,1509030497194328447,crazyflie/base_link,0.0,0.0,0.0,0.0,-1.0,0.0,0.0,0.0,0.0,0.0,0.0,0.0,0.0,0.00958737992429,-0.160854929841,-0.0383495196971,0.0,0.0,0.0,0.0,0.0,0.0,0.0,0.0,0.0,-0.146096191406,-0.3065625,9.03880371094,0.0,0.0,0.0,0.0,0.0,0.0,0.0,0.0,0.0
1509030497205491333,21808,1509030497205281069,crazyflie/base_link,0.0,0.0,0.0,0.0,-1.0,0.0,0.0,0.0,0.0,0.0,0.0,0.0,0.0,-0.0479368996214,-0.250337142467,0.0394147841332,0.0,0.0,0.0,0.0,0.0,0.0,0.0,0.0,0.0,-0.285007324219,-0.409548339844,8.95737304688,0.0,0.0,0.0,0.0,0.0,0.0,0.0,0.0,0.0
1509030497221391042,21809,1509030497221199639,crazyflie/base_link,0.0,0.0,0.0,0.0,-1.0,0.0,0.0,0.0,0.0,0.0,0.0,0.0,0.0,-0.0809600971384,-0.236488704799,0.0362189908251,0.0,0.0,0.0,0.0,0.0,0.0,0.0,0.0,0.0,-0.490979003906,-0.510139160156,8.91905273438,0.0,0.0,0.0,0.0,0.0,0.0,0.0,0.0,0.0
1509030497226172284,21810,1509030497226023904,crazyflie/base_link,0.0,0.0,0.0,0.0,-1.0,0.0,0.0,0.0,0.0,0.0,0.0,0.0,0.0,-0.0958737992429,-0.153398078789,0.0,0.0,0.0,0.0,0.0,0.0,0.0,0.0,0.0,0.0,-0.749641113281,-0.586779785156,8.90228759766,0.0,0.0,0.0,0.0,0.0,0.0,0.0,0.0,0.0
1509030497234089322,21811,1509030497233914671,crazyflie/base_link,0.0,0.0,0.0,0.0,-1.0,0.0,0.0,0.0,0.0,0.0,0.0,0.0,0.0,-0.0980043281149,-0.0191747598486,-0.0383495196971,0.0,0.0,0.0,0.0,0.0,0.0,0.0,0.0,0.0,-0.950822753906,-0.622705078125,8.91426269531,0.0,0.0,0.0,0.0,0.0,0.0,0.0,0.0,0.0
1509030497244877740,21812,1509030497244677706,crazyflie/base_link,0.0,0.0,0.0,0.0,-1.0,0.0,0.0,0.0,0.0,0.0,0.0,0.0,0.0,-0.0585895439817,0.0980043281149,-0.0553937506736,0.0,0.0,0.0,0.0,0.0,0.0,0.0,0.0,0.0,-1.02027832031,-0.622705078125,8.93821289062,0.0,0.0,0.0,0.0,0.0,0.0,0.0,0.0,0.0
1509030497256385188,21813,1509030497256187388,crazyflie/base_link,0.0,0.0,0.0,0.0,-1.0,0.0,0.0,0.0,0.0,0.0,0.0,0.0,0.0,-0.0159789665405,0.164050723149,-0.0543284862376,0.0,0.0,0.0,0.0,0.0,0.0,0.0,0.0,0.0,-0.948427734375,-0.558039550781,8.99329833984,0.0,0.0,0.0,0.0,0.0,0.0,0.0,0.0,0.0
1509030497265059407,21814,1509030497264909098,crazyflie/base_link,0.0,0.0,0.0,0.0,-1.0,0.0,0.0,0.0,0.0,0.0,0.0,0.0,0.0,0.0127831732324,0.142745434428,-0.0266316109008,0.0,0.0,0.0,0.0,0.0,0.0,0.0,0.0,0.0,-0.783171386719,-0.467028808594,9.05796386719,0.0,0.0,0.0,0.0,0.0,0.0,0.0,0.0,0.0
1509030497274778642,21815,1509030497274550271,crazyflie/base_link,0.0,0.0,0.0,0.0,-1.0,0.0,0.0,0.0,0.0,0.0,0.0,0.0,0.0,0.0159789665405,0.0703074527781,0.0223705531567,0.0,0.0,0.0,0.0,0.0,0.0,0.0,0.0,0.0,-0.577199707031,-0.399968261719,9.10346923828,0.0,0.0,0.0,0.0,0.0,0.0,0.0,0.0,0.0
1509030497284258360,21816,1509030497284107719,crazyflie/base_link,0.0,0.0,0.0,0.0,-1.0,0.0,0.0,0.0,0.0,0.0,0.0,0.0,0.0,-0.0106526443603,-0.0213052887206,0.066046395034,0.0,0.0,0.0,0.0,0.0,0.0,0.0,0.0,0.0,-0.385598144531,-0.347277832031,9.14178955078,0.0,0.0,0.0,0.0,0.0,0.0,0.0,0.0,0.0
1509030497294113383,21817,1509030497293926317,crazyflie/base_link,0.0,0.0,0.0,0.0,-1.0,0.0,0.0,0.0,0.0,0.0,0.0,0.0,0.0,-0.0298274042089,-0.102265385859,0.0937432703708,0.0,0.0,0.0,0.0,0.0,0.0,0.0,0.0,0.0,-0.239501953125,-0.32572265625,9.18968994141,0.0,0.0,0.0,0.0,0.0,0.0,0.0,0.0,0.0
1509030497304412453,21818,1509030497304270846,crazyflie/base_link,0.0,0.0,0.0,0.0,-1.0,0.0,0.0,0.0,0.0,0.0,0.0,0.0,0.0,-0.0543284862376,-0.147006492172,0.0756337749583,0.0,0.0,0.0,0.0,0.0,0.0,0.0,0.0,0.0,-0.179626464844,-0.292192382813,9.23040527344,0.0,0.0,0.0,0.0,0.0,0.0,0.0,0.0,0.0
1509030497314003894,21819,1509030497313842340,crazyflie/base_link,0.0,0.0,0.0,0.0,-1.0,0.0,0.0,0.0,0.0,0.0,0.0,0.0,0.0,-0.0639158661619,-0.149137021044,0.0308926686449,0.0,0.0,0.0,0.0,0.0,0.0,0.0,0.0,0.0,-0.215551757813,-0.282612304688,9.27830566406,0.0,0.0,0.0,0.0,0.0,0.0,0.0,0.0,0.0
1509030497324836791,21820,1509030497324676489,crazyflie/base_link,0.0,0.0,0.0,0.0,-1.0,0.0,0.0,0.0,0.0,0.0,0.0,0.0,0.0,-0.0628506017259,-0.110787501347,0.0170442309765,0.0,0.0,0.0,0.0,0.0,0.0,0.0,0.0,0.0,-0.323327636719,-0.296982421875,9.31902099609,0.0,0.0,0.0,0.0,0.0,0.0,0.0,0.0,0.0
1509030497334430921,21821,1509030497334238773,crazyflie/base_link,0.0,0.0,0.0,0.0,-1.0,0.0,0.0,0.0,0.0,0.0,0.0,0.0,0.0,-0.0426105774413,-0.06711165947,0.0287621397729,0.0,0.0,0.0,0.0,0.0,0.0,0.0,0.0,0.0,-0.45984375,-0.292192382813,9.36213134766,0.0,0.0,0.0,0.0,0.0,0.0,0.0,0.0,0.0
1509030497351948178,21822,1509030497351800811,crazyflie/base_link,0.0,0.0,0.0,0.0,-1.0,0.0,0.0,0.0,0.0,0.0,0.0,0.0,0.0,-0.00958737992429,-0.0127831732324,0.0703074527781,0.0,0.0,0.0,0.0,0.0,0.0,0.0,0.0,0.0,-0.558039550781,-0.320932617187,9.38368652344,0.0,0.0,0.0,0.0,0.0,0.0,0.0,0.0,0.0
1509030497354511145,21823,1509030497354271933,crazyflie/base_link,0.0,0.0,0.0,0.0,-1.0,0.0,0.0,0.0,0.0,0.0,0.0,0.0,0.0,0.033023197517,0.00958737992429,0.121440145708,0.0,0.0,0.0,0.0,0.0,0.0,0.0,0.0,0.0,-0.598754882812,-0.330512695312,9.38129150391,0.0,0.0,0.0,0.0,0.0,0.0,0.0,0.0,0.0
1509030497364236720,21824,1509030497364020567,crazyflie/base_link,0.0,0.0,0.0,0.0,-1.0,0.0,0.0,0.0,0.0,0.0,0.0,0.0,0.0,0.0532632218016,0.0149137021044,0.136353847812,0.0,0.0,0.0,0.0,0.0,0.0,0.0,0.0,0.0,-0.577199707031,-0.332907714844,9.38608154297,0.0,0.0,0.0,0.0,0.0,0.0,0.0,0.0,0.0
1509030497373821867,21825,1509030497373702359,crazyflie/base_link,0.0,0.0,0.0,0.0,-1.0,0.0,0.0,0.0,0.0,0.0,0.0,0.0,0.0,0.0404800485692,-0.0117179087963,0.120374881272,0.0,0.0,0.0,0.0,0.0,0.0,0.0,0.0,0.0,-0.548459472656,-0.399968261719,9.33818115234,0.0,0.0,0.0,0.0,0.0,0.0,0.0,0.0,0.0
1509030497384566593,21826,1509030497384291045,crazyflie/base_link,0.0,0.0,0.0,0.0,-1.0,0.0,0.0,0.0,0.0,0.0,0.0,0.0,0.0,-0.0308926686449,-0.034088461953,0.0394147841332,0.0,0.0,0.0,0.0,0.0,0.0,0.0,0.0,0.0,-0.579594726562,-0.3448828125,9.33578613281,0.0,0.0,0.0,0.0,0.0,0.0,0.0,0.0,0.0
1509030497394400036,21827,1509030497394248644,crazyflie/base_link,0.0,0.0,0.0,0.0,-1.0,0.0,0.0,0.0,0.0,0.0,0.0,0.0,0.0,-0.0862864193186,-0.0276968753368,-0.0372842552611,0.0,0.0,0.0,0.0,0.0,0.0,0.0,0.0,0.0,-0.536484375,-0.296982421875,9.39566162109,0.0,0.0,0.0,0.0,0.0,0.0,0.0,0.0,0.0
1509030497404745409,21828,1509030497404586110,crazyflie/base_link,0.0,0.0,0.0,0.0,-1.0,0.0,0.0,0.0,0.0,0.0,0.0,0.0,0.0,-0.0607200728538,0.0170442309765,-0.0532632218016,0.0,0.0,0.0,0.0,0.0,0.0,0.0,0.0,0.0,-0.493374023438,-0.2682421875,9.42440185547,0.0,0.0,0.0,0.0,0.0,0.0,0.0,0.0,0.0
1509030497414369868,21829,1509030497414198552,crazyflie/base_link,0.0,0.0,0.0,0.0,-1.0,0.0,0.0,0.0,0.0,0.0,0.0,0.0,0.0,0.0127831732324,0.0788295682663,-0.0255663464648,0.0,0.0,0.0,0.0,0.0,0.0,0.0,0.0,0.0,-0.426313476563,-0.229921875,9.45314208984,0.0,0.0,0.0,0.0,0.0,0.0,0.0,0.0,0.0
1509030497424973640,21830,1509030497424823542,crazyflie/base_link,0.0,0.0,0.0,0.0,-1.0,0.0,0.0,0.0,0.0,0.0,0.0,0.0,0.0,0.0798948327024,0.0948085348068,0.0234358175927,0.0,0.0,0.0,0.0,0.0,0.0,0.0,0.0,0.0,-0.354462890625,-0.189206542969,9.47469726563,0.0,0.0,0.0,0.0,0.0,0.0,0.0,0.0,0.0
1509030497434709067,21831,1509030497434522222,crazyflie/base_link,0.0,0.0,0.0,0.0,-1.0,0.0,0.0,0.0,0.0,0.0,0.0,0.0,0.0,0.100134856987,0.0703074527781,0.0820253615744,0.0,0.0,0.0,0.0,0.0,0.0,0.0,0.0,0.0,-0.311352539062,-0.189206542969,9.45074707031,0.0,0.0,0.0,0.0,0.0,0.0,0.0,0.0,0.0
1509030497441955620,21832,1509030497441810666,crazyflie/base_link,0.0,0.0,0.0,0.0,-1.0,0.0,0.0,0.0,0.0,0.0,0.0,0.0,0.0,0.0894822126267,0.00213052887206,0.153398078789,0.0,0.0,0.0,0.0,0.0,0.0,0.0,0.0,0.0,-0.289797363281,-0.215551757813,9.43398193359,0.0,0.0,0.0,0.0,0.0,0.0,0.0,0.0,0.0
1509030497452648878,21833,1509030497452348181,crazyflie/base_link,0.0,0.0,0.0,0.0,-1.0,0.0,0.0,0.0,0.0,0.0,0.0,0.0,0.0,0.0436758418773,-0.0692421883421,0.189617069614,0.0,0.0,0.0,0.0,0.0,0.0,0.0,0.0,0.0,-0.323327636719,-0.222736816406,9.42200683594,0.0,0.0,0.0,0.0,0.0,0.0,0.0,0.0,0.0
1509030497462589953,21834,1509030497462390194,crazyflie/base_link,0.0,0.0,0.0,0.0,-1.0,0.0,0.0,0.0,0.0,0.0,0.0,0.0,0.0,0.00639158661619,-0.105461179167,0.199204449538,0.0,0.0,0.0,0.0,0.0,0.0,0.0,0.0,0.0,-0.40236328125,-0.229921875,9.41482177734,0.0,0.0,0.0,0.0,0.0,0.0,0.0,0.0,0.0
1509030497472264529,21835,1509030497472038757,crazyflie/base_link,0.0,0.0,0.0,0.0,-1.0,0.0,0.0,0.0,0.0,0.0,0.0,0.0,0.0,-0.00745685105222,-0.0788295682663,0.192812862922,0.0,0.0,0.0,0.0,0.0,0.0,0.0,0.0,0.0,-0.471818847656,-0.225131835938,9.41482177734,0.0,0.0,0.0,0.0,0.0,0.0,0.0,0.0,0.0
1509030497485071198,21836,1509030497484864439,crazyflie/base_link,0.0,0.0,0.0,0.0,-1.0,0.0,0.0,0.0,0.0,0.0,0.0,0.0,0.0,0.0383495196971,0.0170442309765,0.174703367509,0.0,0.0,0.0,0.0,0.0,0.0,0.0,0.0,0.0,-0.493374023438,-0.220341796875,9.42440185547,0.0,0.0,0.0,0.0,0.0,0.0,0.0,0.0,0.0
1509030497492913400,21837,1509030497492728682,crazyflie/base_link,0.0,0.0,0.0,0.0,-1.0,0.0,0.0,0.0,0.0,0.0,0.0,0.0,0.0,0.0841558904465,0.115048559091,0.133158054504,0.0,0.0,0.0,0.0,0.0,0.0,0.0,0.0,0.0,-0.47900390625,-0.227526855469,9.38608154297,0.0,0.0,0.0,0.0,0.0,0.0,0.0,0.0,0.0
1509030497503205478,21838,1509030497503015549,crazyflie/base_link,0.0,0.0,0.0,0.0,-1.0,0.0,0.0,0.0,0.0,0.0,0.0,0.0,0.0,0.0969390636789,0.172572838637,0.0884169481906,0.0,0.0,0.0,0.0,0.0,0.0,0.0,0.0,0.0,-0.428708496094,-0.246687011719,9.33339111328,0.0,0.0,0.0,0.0,0.0,0.0,0.0,0.0,0.0
1509030497512934350,21839,1509030497512784392,crazyflie/base_link,0.0,0.0,0.0,0.0,-1.0,0.0,0.0,0.0,0.0,0.0,0.0,0.0,0.0,0.0873516837546,0.149137021044,0.0639158661619,0.0,0.0,0.0,0.0,0.0,0.0,0.0,0.0,0.0,-0.361647949219,-0.258662109375,9.29267578125,0.0,0.0,0.0,0.0,0.0,0.0,0.0,0.0,0.0
1509030497524164302,21840,1509030497523891069,crazyflie/base_link,0.0,0.0,0.0,0.0,-1.0,0.0,0.0,0.0,0.0,0.0,0.0,0.0,0.0,0.0383495196971,0.0585895439817,0.0703074527781,0.0,0.0,0.0,0.0,0.0,0.0,0.0,0.0,0.0,-0.308957519531,-0.261057128906,9.27830566406,0.0,0.0,0.0,0.0,0.0,0.0,0.0,0.0,0.0
1509030497533627348,21841,1509030497533470954,crazyflie/base_link,0.0,0.0,0.0,0.0,-1.0,0.0,0.0,0.0,0.0,0.0,0.0,0.0,0.0,-0.0276968753368,-0.0607200728538,0.131027525632,0.0,0.0,0.0,0.0,0.0,0.0,0.0,0.0,0.0,-0.323327636719,-0.261057128906,9.25914550781,0.0,0.0,0.0,0.0,0.0,0.0,0.0,0.0,0.0
1509030497544313518,21842,1509030497544185288,crazyflie/base_link,0.0,0.0,0.0,0.0,-1.0,0.0,0.0,0.0,0.0,0.0,0.0,0.0,0.0,-0.0937432703708,-0.142745434428,0.218379209386,0.0,0.0,0.0,0.0,0.0,0.0,0.0,0.0,0.0,-0.395178222656,-0.232316894531,9.28788574219,0.0,0.0,0.0,0.0,0.0,0.0,0.0,0.0,0.0
1509030497554126767,21843,1509030497553936563,crazyflie/base_link,0.0,0.0,0.0,0.0,-1.0,0.0,0.0,0.0,0.0,0.0,0.0,0.0,0.0,-0.110787501347,-0.153398078789,0.266316109008,0.0,0.0,0.0,0.0,0.0,0.0,0.0,0.0,0.0,-0.474213867188,-0.205971679688,9.35015625,0.0,0.0,0.0,0.0,0.0,0.0,0.0,0.0,0.0
1509030497574475924,21844,1509030497574215647,crazyflie/base_link,0.0,0.0,0.0,0.0,-1.0,0.0,0.0,0.0,0.0,0.0,0.0,0.0,0.0,-0.0532632218016,-0.00639158661619,0.247141349159,0.0,0.0,0.0,0.0,0.0,0.0,0.0,0.0,0.0,-0.629890136719,-0.182021484375,9.46751220703,0.0,0.0,0.0,0.0,0.0,0.0,0.0,0.0,0.0
1509030497583087287,21845,1509030497582955802,crazyflie/base_link,0.0,0.0,0.0,0.0,-1.0,0.0,0.0,0.0,0.0,0.0,0.0,0.0,0.0,-0.0276968753368,0.0628506017259,0.214118151642,0.0,0.0,0.0,0.0,0.0,0.0,0.0,0.0,0.0,-0.680185546875,-0.162861328125,9.52259765625,0.0,0.0,0.0,0.0,0.0,0.0,0.0,0.0,0.0
1509030497592680234,21846,1509030497592480159,crazyflie/base_link,0.0,0.0,0.0,0.0,-1.0,0.0,0.0,0.0,0.0,0.0,0.0,0.0,0.0,-0.0170442309765,0.0852211548825,0.204530771718,0.0,0.0,0.0,0.0,0.0,0.0,0.0,0.0,0.0,-0.725690917969,-0.146096191406,9.58486816406,0.0,0.0,0.0,0.0,0.0,0.0,0.0,0.0,0.0
1509030497603464930,21847,1509030497603295777,crazyflie/base_link,0.0,0.0,0.0,0.0,-1.0,0.0,0.0,0.0,0.0,0.0,0.0,0.0,0.0,-0.031957933081,0.0798948327024,0.219444473823,0.0,0.0,0.0,0.0,0.0,0.0,0.0,0.0,0.0,-0.76640625,-0.122145996094,9.64474365234,0.0,0.0,0.0,0.0,0.0,0.0,0.0,0.0,0.0
1509030497619219340,21848,1509030497619049609,crazyflie/base_link,0.0,0.0,0.0,0.0,-1.0,0.0,0.0,0.0,0.0,0.0,0.0,0.0,0.0,-0.031957933081,0.0735032460862,0.254598200212,0.0,0.0,0.0,0.0,0.0,0.0,0.0,0.0,0.0,-0.76640625,-0.122145996094,9.67827392578,0.0,0.0,0.0,0.0,0.0,0.0,0.0,0.0,0.0
1509030497624938885,21849,1509030497624774763,crazyflie/base_link,0.0,0.0,0.0,0.0,-1.0,0.0,0.0,0.0,0.0,0.0,0.0,0.0,0.0,-0.00958737992429,0.0777643038303,0.300404570961,0.0,0.0,0.0,0.0,0.0,0.0,0.0,0.0,0.0,-0.737666015625,-0.148491210938,9.66390380859,0.0,0.0,0.0,0.0,0.0,0.0,0.0,0.0,0.0
1509030497634745783,21850,1509030497634556237,crazyflie/base_link,0.0,0.0,0.0,0.0,-1.0,0.0,0.0,0.0,0.0,0.0,0.0,0.0,0.0,0.00745685105222,0.0745685105222,0.331297239606,0.0,0.0,0.0,0.0,0.0,0.0,0.0,0.0,0.0,-0.725690917969,-0.165256347656,9.61600341797,0.0,0.0,0.0,0.0,0.0,0.0,0.0,0.0,0.0
1509030497642684311,21851,1509030497642487619,crazyflie/base_link,0.0,0.0,0.0,0.0,-1.0,0.0,0.0,0.0,0.0,0.0,0.0,0.0,0.0,-0.00745685105222,0.0617853372898,0.317448801937,0.0,0.0,0.0,0.0,0.0,0.0,0.0,0.0,0.0,-0.723295898438,-0.162861328125,9.580078125,0.0,0.0,0.0,0.0,0.0,0.0,0.0,0.0,0.0
1509030497652254149,21852,1509030497652115398,crazyflie/base_link,0.0,0.0,0.0,0.0,-1.0,0.0,0.0,0.0,0.0,0.0,0.0,0.0,0.0,-0.0404800485692,0.0255663464648,0.282295075548,0.0,0.0,0.0,0.0,0.0,0.0,0.0,0.0,0.0,-0.730480957031,-0.13412109375,9.53936279297,0.0,0.0,0.0,0.0,0.0,0.0,0.0,0.0,0.0
1509030497663007446,21853,1509030497662831898,crazyflie/base_link,0.0,0.0,0.0,0.0,-1.0,0.0,0.0,0.0,0.0,0.0,0.0,0.0,0.0,-0.0607200728538,-0.00958737992429,0.26844663788,0.0,0.0,0.0,0.0,0.0,0.0,0.0,0.0,0.0,-0.737666015625,-0.0814306640625,9.53217773438,0.0,0.0,0.0,0.0,0.0,0.0,0.0,0.0,0.0
1509030497671647376,21854,1509030497671452972,crazyflie/base_link,0.0,0.0,0.0,0.0,-1.0,0.0,0.0,0.0,0.0,0.0,0.0,0.0,0.0,-0.0532632218016,-0.033023197517,0.298274042089,0.0,0.0,0.0,0.0,0.0,0.0,0.0,0.0,0.0,-0.783171386719,0.0119750976563,9.55133789062,0.0,0.0,0.0,0.0,0.0,0.0,0.0,0.0,0.0
1509030497684086282,21855,1509030497683906936,crazyflie/base_link,0.0,0.0,0.0,0.0,-1.0,0.0,0.0,0.0,0.0,0.0,0.0,0.0,0.0,-0.0255663464648,-0.0117179087963,0.348341470582,0.0,0.0,0.0,0.0,0.0,0.0,0.0,0.0,0.0,-0.787961425781,0.117355957031,9.57289306641,0.0,0.0,0.0,0.0,0.0,0.0,0.0,0.0,0.0
1509030497693738407,21856,1509030497693559490,crazyflie/base_link,0.0,0.0,0.0,0.0,-1.0,0.0,0.0,0.0,0.0,0.0,0.0,0.0,0.0,0.0287621397729,0.0436758418773,0.393082576896,0.0,0.0,0.0,0.0,0.0,0.0,0.0,0.0,0.0,-0.732875976563,0.186811523438,9.56570800781,0.0,0.0,0.0,0.0,0.0,0.0,0.0,0.0,0.0
1509030497701598188,21857,1509030497701434606,crazyflie/base_link,0.0,0.0,0.0,0.0,-1.0,0.0,0.0,0.0,0.0,0.0,0.0,0.0,0.0,0.0894822126267,0.105461179167,0.406931014564,0.0,0.0,0.0,0.0,0.0,0.0,0.0,0.0,0.0,-0.620310058594,0.234711914062,9.55852294922,0.0,0.0,0.0,0.0,0.0,0.0,0.0,0.0,0.0
1509030497712014946,21858,1509030497711835262,crazyflie/base_link,0.0,0.0,0.0,0.0,-1.0,0.0,0.0,0.0,0.0,0.0,0.0,0.0,0.0,0.101200121423,0.137419112248,0.379234139227,0.0,0.0,0.0,0.0,0.0,0.0,0.0,0.0,0.0,-0.502954101562,0.277822265625,9.5417578125,0.0,0.0,0.0,0.0,0.0,0.0,0.0,0.0,0.0
1509030497721910453,21859,1509030497721741280,crazyflie/base_link,0.0,0.0,0.0,0.0,-1.0,0.0,0.0,0.0,0.0,0.0,0.0,0.0,0.0,0.0724379816502,0.135288583376,0.327036181862,0.0,0.0,0.0,0.0,0.0,0.0,0.0,0.0,0.0,-0.399968261719,0.304167480469,9.52499267578,0.0,0.0,0.0,0.0,0.0,0.0,0.0,0.0,0.0
1509030497732310743,21860,1509030497732178521,crazyflie/base_link,0.0,0.0,0.0,0.0,-1.0,0.0,0.0,0.0,0.0,0.0,0.0,0.0,0.0,0.0308926686449,0.115048559091,0.276968753368,0.0,0.0,0.0,0.0,0.0,0.0,0.0,0.0,0.0,-0.337697753906,0.32572265625,9.5034375,0.0,0.0,0.0,0.0,0.0,0.0,0.0,0.0,0.0
1509030497750852088,21861,1509030497750605929,crazyflie/base_link,0.0,0.0,0.0,0.0,-1.0,0.0,0.0,0.0,0.0,0.0,0.0,0.0,0.0,-0.0031957933081,0.106526443603,0.238619233671,0.0,0.0,0.0,0.0,0.0,0.0,0.0,0.0,0.0,-0.285007324219,0.354462890625,9.49146240234,0.0,0.0,0.0,0.0,0.0,0.0,0.0,0.0,0.0
1509030497753398011,21862,1509030497753076520,crazyflie/base_link,0.0,0.0,0.0,0.0,-1.0,0.0,0.0,0.0,0.0,0.0,0.0,0.0,0.0,0.0106526443603,0.12357067458,0.238619233671,0.0,0.0,0.0,0.0,0.0,0.0,0.0,0.0,0.0,-0.217946777344,0.359252929688,9.46751220703,0.0,0.0,0.0,0.0,0.0,0.0,0.0,0.0,0.0
1509030497763198298,21863,1509030497763009622,crazyflie/base_link,0.0,0.0,0.0,0.0,-1.0,0.0,0.0,0.0,0.0,0.0,0.0,0.0,0.0,0.0585895439817,0.148071756608,0.265250844572,0.0,0.0,0.0,0.0,0.0,0.0,0.0,0.0,0.0,-0.158071289063,0.335302734375,9.42919189453,0.0,0.0,0.0,0.0,0.0,0.0,0.0,0.0,0.0
1509030497772855099,21864,1509030497772667678,crazyflie/base_link,0.0,0.0,0.0,0.0,-1.0,0.0,0.0,0.0,0.0,0.0,0.0,0.0,0.0,0.0958737992429,0.13954964112,0.309991950885,0.0,0.0,0.0,0.0,0.0,0.0,0.0,0.0,0.0,-0.143701171875,0.261057128906,9.37410644531,0.0,0.0,0.0,0.0,0.0,0.0,0.0,0.0,0.0
1509030497784238562,21865,1509030497784016056,crazyflie/base_link,0.0,0.0,0.0,0.0,-1.0,0.0,0.0,0.0,0.0,0.0,0.0,0.0,0.0,0.0703074527781,0.0980043281149,0.343015148402,0.0,0.0,0.0,0.0,0.0,0.0,0.0,0.0,0.0,-0.174836425781,0.193996582031,9.34776123047,0.0,0.0,0.0,0.0,0.0,0.0,0.0,0.0,0.0
1509030497791983724,21866,1509030497791816560,crazyflie/base_link,0.0,0.0,0.0,0.0,-1.0,0.0,0.0,0.0,0.0,0.0,0.0,0.0,0.0,0.00745685105222,0.0564590151097,0.34088461953,0.0,0.0,0.0,0.0,0.0,0.0,0.0,0.0,0.0,-0.203576660156,0.138911132813,9.35255126953,0.0,0.0,0.0,0.0,0.0,0.0,0.0,0.0,0.0
1509030497801956894,21867,1509030497801740503,crazyflie/base_link,0.0,0.0,0.0,0.0,-1.0,0.0,0.0,0.0,0.0,0.0,0.0,0.0,0.0,-0.0245010820287,0.0362189908251,0.306796157577,0.0,0.0,0.0,0.0,0.0,0.0,0.0,0.0,0.0,-0.201181640625,0.0910107421875,9.38129150391,0.0,0.0,0.0,0.0,0.0,0.0,0.0,0.0,0.0
1509030497812373656,21868,1509030497812175630,crazyflie/base_link,0.0,0.0,0.0,0.0,-1.0,0.0,0.0,0.0,0.0,0.0,0.0,0.0,0.0,-0.035153726389,0.0564590151097,0.270577166752,0.0,0.0,0.0,0.0,0.0,0.0,0.0,0.0,0.0,-0.174836425781,0.0622705078125,9.42200683594,0.0,0.0,0.0,0.0,0.0,0.0,0.0,0.0,0.0
1509030497823013598,21869,1509030497822768107,crazyflie/base_link,0.0,0.0,0.0,0.0,-1.0,0.0,0.0,0.0,0.0,0.0,0.0,0.0,0.0,-0.0127831732324,0.0884169481906,0.247141349159,0.0,0.0,0.0,0.0,0.0,0.0,0.0,0.0,0.0,-0.15328125,0.0383203125,9.4651171875,0.0,0.0,0.0,0.0,0.0,0.0,0.0,0.0,0.0
1509030497832519470,21870,1509030497832307727,crazyflie/base_link,0.0,0.0,0.0,0.0,-1.0,0.0,0.0,0.0,0.0,0.0,0.0,0.0,0.0,0.00213052887206,0.110787501347,0.243945555851,0.0,0.0,0.0,0.0,0.0,0.0,0.0,0.0,0.0,-0.143701171875,0.0215551757813,9.52738769531,0.0,0.0,0.0,0.0,0.0,0.0,0.0,0.0,0.0
1509030497842207931,21871,1509030497841977812,crazyflie/base_link,0.0,0.0,0.0,0.0,-1.0,0.0,0.0,0.0,0.0,0.0,0.0,0.0,0.0,-0.00639158661619,0.110787501347,0.247141349159,0.0,0.0,0.0,0.0,0.0,0.0,0.0,0.0,0.0,-0.158071289063,0.00718505859375,9.58247314453,0.0,0.0,0.0,0.0,0.0,0.0,0.0,0.0,0.0
1509030497851958840,21872,1509030497851721963,crazyflie/base_link,0.0,0.0,0.0,0.0,-1.0,0.0,0.0,0.0,0.0,0.0,0.0,0.0,0.0,-0.0276968753368,0.107591708039,0.245010820287,0.0,0.0,0.0,0.0,0.0,0.0,0.0,0.0,0.0,-0.177231445313,0.00239501953125,9.64713867188,0.0,0.0,0.0,0.0,0.0,0.0,0.0,0.0,0.0
1509030497861870917,21873,1509030497861709705,crazyflie/base_link,0.0,0.0,0.0,0.0,-1.0,0.0,0.0,0.0,0.0,0.0,0.0,0.0,0.0,-0.0447411063133,0.119309616836,0.223705531567,0.0,0.0,0.0,0.0,0.0,0.0,0.0,0.0,0.0,-0.208366699219,0.0,9.71419921875,0.0,0.0,0.0,0.0,0.0,0.0,0.0,0.0,0.0
1509030497880755433,21874,1509030497880143302,crazyflie/base_link,0.0,0.0,0.0,0.0,-1.0,0.0,0.0,0.0,0.0,0.0,0.0,0.0,0.0,-0.0372842552611,0.166181252021,0.178964425253,0.0,0.0,0.0,0.0,0.0,0.0,0.0,0.0,0.0,-0.203576660156,-0.009580078125,9.75491455078,0.0,0.0,0.0,0.0,0.0,0.0,0.0,0.0,0.0
1509030497882248597,21875,1509030497882088999,crazyflie/base_link,0.0,0.0,0.0,0.0,-1.0,0.0,0.0,0.0,0.0,0.0,0.0,0.0,0.0,-0.00106526443603,0.219444473823,0.127831732324,0.0,0.0,0.0,0.0,0.0,0.0,0.0,0.0,0.0,-0.15328125,-0.047900390625,9.7716796875,0.0,0.0,0.0,0.0,0.0,0.0,0.0,0.0,0.0
1509030497890902323,21876,1509030497890679000,crazyflie/base_link,0.0,0.0,0.0,0.0,-1.0,0.0,0.0,0.0,0.0,0.0,0.0,0.0,0.0,0.0404800485692,0.234358175927,0.111852765783,0.0,0.0,0.0,0.0,0.0,0.0,0.0,0.0,0.0,-0.112565917969,-0.100590820313,9.75012451172,0.0,0.0,0.0,0.0,0.0,0.0,0.0,0.0,0.0
1509030497900544790,21877,1509030497900362536,crazyflie/base_link,0.0,0.0,0.0,0.0,-1.0,0.0,0.0,0.0,0.0,0.0,0.0,0.0,0.0,0.0383495196971,0.177899160817,0.15020228548,0.0,0.0,0.0,0.0,0.0,0.0,0.0,0.0,0.0,-0.102985839844,-0.141306152344,9.72377929687,0.0,0.0,0.0,0.0,0.0,0.0,0.0,0.0,0.0
1509030497911993661,21878,1509030497911788711,crazyflie/base_link,0.0,0.0,0.0,0.0,-1.0,0.0,0.0,0.0,0.0,0.0,0.0,0.0,0.0,0.00106526443603,0.0873516837546,0.21198762277,0.0,0.0,0.0,0.0,0.0,0.0,0.0,0.0,0.0,-0.119750976562,-0.174836425781,9.68785400391,0.0,0.0,0.0,0.0,0.0,0.0,0.0,0.0,0.0
1509030497922603150,21879,1509030497922338652,crazyflie/base_link,0.0,0.0,0.0,0.0,-1.0,0.0,0.0,0.0,0.0,0.0,0.0,0.0,0.0,-0.0479368996214,-0.0031957933081,0.27909928224,0.0,0.0,0.0,0.0,0.0,0.0,0.0,0.0,0.0,-0.146096191406,-0.208366699219,9.64234863281,0.0,0.0,0.0,0.0,0.0,0.0,0.0,0.0,0.0
1509030497931109198,21880,1509030497930949277,crazyflie/base_link,0.0,0.0,0.0,0.0,-1.0,0.0,0.0,0.0,0.0,0.0,0.0,0.0,0.0,-0.0862864193186,-0.0490021640575,0.300404570961,0.0,0.0,0.0,0.0,0.0,0.0,0.0,0.0,0.0,-0.174836425781,-0.215551757813,9.61360839844,0.0,0.0,0.0,0.0,0.0,0.0,0.0,0.0,0.0
1509030497941841312,21881,1509030497941701285,crazyflie/base_link,0.0,0.0,0.0,0.0,-1.0,0.0,0.0,0.0,0.0,0.0,0.0,0.0,0.0,-0.0884169481906,-0.0532632218016,0.281229811112,0.0,0.0,0.0,0.0,0.0,0.0,0.0,0.0,0.0,-0.160466308594,-0.201181640625,9.62079345703,0.0,0.0,0.0,0.0,0.0,0.0,0.0,0.0,0.0
1509030497952343053,21882,1509030497952117722,crazyflie/base_link,0.0,0.0,0.0,0.0,-1.0,0.0,0.0,0.0,0.0,0.0,0.0,0.0,0.0,-0.068176923906,-0.0266316109008,0.232227647055,0.0,0.0,0.0,0.0,0.0,0.0,0.0,0.0,0.0,-0.100590820313,-0.167651367188,9.66150878906,0.0,0.0,0.0,0.0,0.0,0.0,0.0,0.0,0.0
1509030497961866537,21883,1509030497961728300,crazyflie/base_link,0.0,0.0,0.0,0.0,-1.0,0.0,0.0,0.0,0.0,0.0,0.0,0.0,0.0,-0.0426105774413,-0.0031957933081,0.204530771718,0.0,0.0,0.0,0.0,0.0,0.0,0.0,0.0,0.0,-0.0311352539063,-0.105380859375,9.71659423828,0.0,0.0,0.0,0.0,0.0,0.0,0.0,0.0,0.0
1509030497970505332,21884,1509030497970380469,crazyflie/base_link,0.0,0.0,0.0,0.0,-1.0,0.0,0.0,0.0,0.0,0.0,0.0,0.0,0.0,-0.0394147841332,0.00532632218016,0.19600865623,0.0,0.0,0.0,0.0,0.0,0.0,0.0,0.0,0.0,0.0455053710938,-0.01916015625,9.79562988281,0.0,0.0,0.0,0.0,0.0,0.0,0.0,0.0,0.0
1509030497982222217,21885,1509030497982002970,crazyflie/base_link,0.0,0.0,0.0,0.0,-1.0,0.0,0.0,0.0,0.0,0.0,0.0,0.0,0.0,-0.0170442309765,0.00852211548825,0.21198762277,0.0,0.0,0.0,0.0,0.0,0.0,0.0,0.0,0.0,0.126936035156,0.0622705078125,9.87706054688,0.0,0.0,0.0,0.0,0.0,0.0,0.0,0.0,0.0
1509030497990909682,21886,1509030497990688337,crazyflie/base_link,0.0,0.0,0.0,0.0,-1.0,0.0,0.0,0.0,0.0,0.0,0.0,0.0,0.0,0.0276968753368,0.0138484376684,0.233292911491,0.0,0.0,0.0,0.0,0.0,0.0,0.0,0.0,0.0,0.213156738281,0.119750976562,9.90580078125,0.0,0.0,0.0,0.0,0.0,0.0,0.0,0.0,0.0
1509030498009468299,21887,1509030498009133361,crazyflie/base_link,0.0,0.0,0.0,0.0,-1.0,0.0,0.0,0.0,0.0,0.0,0.0,0.0,0.0,0.0639158661619,0.0394147841332,0.224770796003,0.0,0.0,0.0,0.0,0.0,0.0,0.0,0.0,0.0,0.2682421875,0.126936035156,9.86508544922,0.0,0.0,0.0,0.0,0.0,0.0,0.0,0.0,0.0
1509030498011825901,21888,1509030498011552967,crazyflie/base_link,0.0,0.0,0.0,0.0,-1.0,0.0,0.0,0.0,0.0,0.0,0.0,0.0,0.0,0.100134856987,0.0617853372898,0.18535601187,0.0,0.0,0.0,0.0,0.0,0.0,0.0,0.0,0.0,0.308957519531,0.0646655273438,9.76449462891,0.0,0.0,0.0,0.0,0.0,0.0,0.0,0.0,0.0
1509030498020537210,21889,1509030498020287128,crazyflie/base_link,0.0,0.0,0.0,0.0,-1.0,0.0,0.0,0.0,0.0,0.0,0.0,0.0,0.0,0.0830906260105,0.0585895439817,0.140614905556,0.0,0.0,0.0,0.0,0.0,0.0,0.0,0.0,0.0,0.3065625,-0.01916015625,9.63037353516,0.0,0.0,0.0,0.0,0.0,0.0,0.0,0.0,0.0
1509030498031393424,21890,1509030498031158059,crazyflie/base_link,0.0,0.0,0.0,0.0,-1.0,0.0,0.0,0.0,0.0,0.0,0.0,0.0,0.0,0.0117179087963,0.0490021640575,0.0926780059348,0.0,0.0,0.0,0.0,0.0,0.0,0.0,0.0,0.0,0.270637207031,-0.0981958007813,9.51541259766,0.0,0.0,0.0,0.0,0.0,0.0,0.0,0.0,0.0
1509030498040979651,21891,1509030498040790582,crazyflie/base_link,0.0,0.0,0.0,0.0,-1.0,0.0,0.0,0.0,0.0,0.0,0.0,0.0,0.0,-0.0532632218016,0.0202400242846,0.034088461953,0.0,0.0,0.0,0.0,0.0,0.0,0.0,0.0,0.0,0.234711914062,-0.119750976562,9.44595703125,0.0,0.0,0.0,0.0,0.0,0.0,0.0,0.0,0.0
1509030498050114486,21892,1509030498049799141,crazyflie/base_link,0.0,0.0,0.0,0.0,-1.0,0.0,0.0,0.0,0.0,0.0,0.0,0.0,0.0,-0.0852211548825,0.0138484376684,0.00958737992429,0.0,0.0,0.0,0.0,0.0,0.0,0.0,0.0,0.0,0.227526855469,-0.107775878906,9.41242675781,0.0,0.0,0.0,0.0,0.0,0.0,0.0,0.0,0.0
1509030498061695738,21893,1509030498061491224,crazyflie/base_link,0.0,0.0,0.0,0.0,-1.0,0.0,0.0,0.0,0.0,0.0,0.0,0.0,0.0,-0.0521979573656,0.0234358175927,0.0372842552611,0.0,0.0,0.0,0.0,0.0,0.0,0.0,0.0,0.0,0.251477050781,-0.05748046875,9.3884765625,0.0,0.0,0.0,0.0,0.0,0.0,0.0,0.0,0.0
1509030498070943107,21894,1509030498070704362,crazyflie/base_link,0.0,0.0,0.0,0.0,-1.0,0.0,0.0,0.0,0.0,0.0,0.0,0.0,0.0,0.00745685105222,0.0521979573656,0.0980043281149,0.0,0.0,0.0,0.0,0.0,0.0,0.0,0.0,0.0,0.282612304688,0.00239501953125,9.38129150391,0.0,0.0,0.0,0.0,0.0,0.0,0.0,0.0,0.0
1509030498080623479,21895,1509030498080432496,crazyflie/base_link,0.0,0.0,0.0,0.0,-1.0,0.0,0.0,0.0,0.0,0.0,0.0,0.0,0.0,0.0607200728538,0.0735032460862,0.165115987585,0.0,0.0,0.0,0.0,0.0,0.0,0.0,0.0,0.0,0.335302734375,0.0526904296875,9.36931640625,0.0,0.0,0.0,0.0,0.0,0.0,0.0,0.0,0.0
1509030498091493929,21896,1509030498091242559,crazyflie/base_link,0.0,0.0,0.0,0.0,-1.0,0.0,0.0,0.0,0.0,0.0,0.0,0.0,0.0,0.0990695925509,0.0756337749583,0.177899160817,0.0,0.0,0.0,0.0,0.0,0.0,0.0,0.0,0.0,0.404758300781,0.0718505859375,9.34057617188,0.0,0.0,0.0,0.0,0.0,0.0,0.0,0.0,0.0
1509030498101294469,21897,1509030498101012404,crazyflie/base_link,0.0,0.0,0.0,0.0,-1.0,0.0,0.0,0.0,0.0,0.0,0.0,0.0,0.0,0.101200121423,0.0628506017259,0.141680169992,0.0,0.0,0.0,0.0,0.0,0.0,0.0,0.0,0.0,0.474213867188,0.0335302734375,9.28070068359,0.0,0.0,0.0,0.0,0.0,0.0,0.0,0.0,0.0
1509030498112130036,21898,1509030498111920492,crazyflie/base_link,0.0,0.0,0.0,0.0,-1.0,0.0,0.0,0.0,0.0,0.0,0.0,0.0,0.0,0.0617853372898,0.0298274042089,0.0809600971384,0.0,0.0,0.0,0.0,0.0,0.0,0.0,0.0,0.0,0.469423828125,-0.00718505859375,9.21843017578,0.0,0.0,0.0,0.0,0.0,0.0,0.0,0.0,0.0
1509030498120755150,21899,1509030498120520018,crazyflie/base_link,0.0,0.0,0.0,0.0,-1.0,0.0,0.0,0.0,0.0,0.0,0.0,0.0,0.0,0.00532632218016,-0.0149137021044,0.0245010820287,0.0,0.0,0.0,0.0,0.0,0.0,0.0,0.0,0.0,0.399968261719,-0.0359252929688,9.17292480469,0.0,0.0,0.0,0.0,0.0,0.0,0.0,0.0,0.0
1509030498139784948,21900,1509030498139532909,crazyflie/base_link,0.0,0.0,0.0,0.0,-1.0,0.0,0.0,0.0,0.0,0.0,0.0,0.0,0.0,-0.0426105774413,-0.031957933081,0.00213052887206,0.0,0.0,0.0,0.0,0.0,0.0,0.0,0.0,0.0,0.332907714844,-0.0742456054688,9.14657958984,0.0,0.0,0.0,0.0,0.0,0.0,0.0,0.0,0.0
1509030498142069753,21901,1509030498141886295,crazyflie/base_link,0.0,0.0,0.0,0.0,-1.0,0.0,0.0,0.0,0.0,0.0,0.0,0.0,0.0,-0.033023197517,-0.0127831732324,-0.0213052887206,0.0,0.0,0.0,0.0,0.0,0.0,0.0,0.0,0.0,0.275427246094,-0.0814306640625,9.13220947266,0.0,0.0,0.0,0.0,0.0,0.0,0.0,0.0,0.0
1509030498152851703,21902,1509030498152478831,crazyflie/base_link,0.0,0.0,0.0,0.0,-1.0,0.0,0.0,0.0,0.0,0.0,0.0,0.0,0.0,-0.00852211548825,0.0266316109008,-0.0308926686449,0.0,0.0,0.0,0.0,0.0,0.0,0.0,0.0,0.0,0.237106933594,-0.0718505859375,9.13220947266,0.0,0.0,0.0,0.0,0.0,0.0,0.0,0.0,0.0
1509030498160726044,21903,1509030498160467825,crazyflie/base_link,0.0,0.0,0.0,0.0,-1.0,0.0,0.0,0.0,0.0,0.0,0.0,0.0,0.0,0.034088461953,0.0511326929295,-0.0191747598486,0.0,0.0,0.0,0.0,0.0,0.0,0.0,0.0,0.0,0.182021484375,-0.05748046875,9.14178955078,0.0,0.0,0.0,0.0,0.0,0.0,0.0,0.0,0.0
1509030498170497486,21904,1509030498170231486,crazyflie/base_link,0.0,0.0,0.0,0.0,-1.0,0.0,0.0,0.0,0.0,0.0,0.0,0.0,0.0,0.0575242795457,0.0458063707494,0.00426105774413,0.0,0.0,0.0,0.0,0.0,0.0,0.0,0.0,0.0,0.105380859375,-0.01916015625,9.13220947266,0.0,0.0,0.0,0.0,0.0,0.0,0.0,0.0,0.0
1509030498180323144,21905,1509030498180185618,crazyflie/base_link,0.0,0.0,0.0,0.0,-1.0,0.0,0.0,0.0,0.0,0.0,0.0,0.0,0.0,0.0532632218016,0.0383495196971,0.0266316109008,0.0,0.0,0.0,0.0,0.0,0.0,0.0,0.0,0.0,0.0790356445313,0.0119750976563,9.13460449219,0.0,0.0,0.0,0.0,0.0,0.0,0.0,0.0,0.0
1509030498191340286,21906,1509030498191125510,crazyflie/base_link,0.0,0.0,0.0,0.0,-1.0,0.0,0.0,0.0,0.0,0.0,0.0,0.0,0.0,0.0830906260105,0.0234358175927,0.00958737992429,0.0,0.0,0.0,0.0,0.0,0.0,0.0,0.0,0.0,0.0981958007813,0.0622705078125,9.13939453125,0.0,0.0,0.0,0.0,0.0,0.0,0.0,0.0,0.0
1509030498201150822,21907,1509030498200928904,crazyflie/base_link,0.0,0.0,0.0,0.0,-1.0,0.0,0.0,0.0,0.0,0.0,0.0,0.0,0.0,0.0948085348068,0.0266316109008,-0.0287621397729,0.0,0.0,0.0,0.0,0.0,0.0,0.0,0.0,0.0,0.117355957031,0.0502954101563,9.08909912109,0.0,0.0,0.0,0.0,0.0,0.0,0.0,0.0,0.0
1509030498210113443,21908,1509030498209872885,crazyflie/base_link,0.0,0.0,0.0,0.0,-1.0,0.0,0.0,0.0,0.0,0.0,0.0,0.0,0.0,0.0862864193186,0.00958737992429,-0.0404800485692,0.0,0.0,0.0,0.0,0.0,0.0,0.0,0.0,0.0,0.0981958007813,-0.009580078125,9.0052734375,0.0,0.0,0.0,0.0,0.0,0.0,0.0,0.0,0.0
1509030498220331496,21909,1509030498220172990,crazyflie/base_link,0.0,0.0,0.0,0.0,-1.0,0.0,0.0,0.0,0.0,0.0,0.0,0.0,0.0,0.0383495196971,-0.0191747598486,-0.0447411063133,0.0,0.0,0.0,0.0,0.0,0.0,0.0,0.0,0.0,0.0215551757813,-0.047900390625,8.95018798828,0.0,0.0,0.0,0.0,0.0,0.0,0.0,0.0,0.0
1509030498230950942,21910,1509030498230777425,crazyflie/base_link,0.0,0.0,0.0,0.0,-1.0,0.0,0.0,0.0,0.0,0.0,0.0,0.0,0.0,-0.0266316109008,-0.0628506017259,-0.0447411063133,0.0,0.0,0.0,0.0,0.0,0.0,0.0,0.0,0.0,-0.0359252929688,-0.0431103515625,8.96216308594,0.0,0.0,0.0,0.0,0.0,0.0,0.0,0.0,0.0
1509030498240645000,21911,1509030498240430404,crazyflie/base_link,0.0,0.0,0.0,0.0,-1.0,0.0,0.0,0.0,0.0,0.0,0.0,0.0,0.0,-0.0585895439817,-0.0713727172141,-0.0585895439817,0.0,0.0,0.0,0.0,0.0,0.0,0.0,0.0,0.0,-0.086220703125,0.00239501953125,9.02443359375,0.0,0.0,0.0,0.0,0.0,0.0,0.0,0.0,0.0
1509030498250435733,21912,1509030498250181356,crazyflie/base_link,0.0,0.0,0.0,0.0,-1.0,0.0,0.0,0.0,0.0,0.0,0.0,0.0,0.0,-0.0458063707494,-0.0404800485692,-0.0543284862376,0.0,0.0,0.0,0.0,0.0,0.0,0.0,0.0,0.0,-0.105380859375,0.0359252929688,9.07233398437,0.0,0.0,0.0,0.0,0.0,0.0,0.0,0.0,0.0
1509030498268459591,21913,1509030498268303413,crazyflie/base_link,0.0,0.0,0.0,0.0,-1.0,0.0,0.0,0.0,0.0,0.0,0.0,0.0,0.0,0.00852211548825,0.00852211548825,-0.0223705531567,0.0,0.0,0.0,0.0,0.0,0.0,0.0,0.0,0.0,-0.136516113281,0.0502954101563,9.07951904297,0.0,0.0,0.0,0.0,0.0,0.0,0.0,0.0,0.0
1509030498270920344,21914,1509030498270725427,crazyflie/base_link,0.0,0.0,0.0,0.0,-1.0,0.0,0.0,0.0,0.0,0.0,0.0,0.0,0.0,0.0394147841332,0.034088461953,0.00745685105222,0.0,0.0,0.0,0.0,0.0,0.0,0.0,0.0,0.0,-0.170046386719,0.0981958007813,9.08670410156,0.0,0.0,0.0,0.0,0.0,0.0,0.0,0.0,0.0
1509030498280515085,21915,1509030498280389469,crazyflie/base_link,0.0,0.0,0.0,0.0,-1.0,0.0,0.0,0.0,0.0,0.0,0.0,0.0,0.0,0.0458063707494,0.0191747598486,-0.00745685105222,0.0,0.0,0.0,0.0,0.0,0.0,0.0,0.0,0.0,-0.177231445313,0.150886230469,9.09149414063,0.0,0.0,0.0,0.0,0.0,0.0,0.0,0.0,0.0
1509030498291360011,21916,1509030498291128725,crazyflie/base_link,0.0,0.0,0.0,0.0,-1.0,0.0,0.0,0.0,0.0,0.0,0.0,0.0,0.0,0.0426105774413,-0.0276968753368,-0.033023197517,0.0,0.0,0.0,0.0,0.0,0.0,0.0,0.0,0.0,-0.162861328125,0.182021484375,9.07233398437,0.0,0.0,0.0,0.0,0.0,0.0,0.0,0.0,0.0
1509030498301357355,21917,1509030498301126873,crazyflie/base_link,0.0,0.0,0.0,0.0,-1.0,0.0,0.0,0.0,0.0,0.0,0.0,0.0,0.0,0.0255663464648,-0.0990695925509,-0.034088461953,0.0,0.0,0.0,0.0,0.0,0.0,0.0,0.0,0.0,-0.160466308594,0.184416503906,9.04598876953,0.0,0.0,0.0,0.0,0.0,0.0,0.0,0.0,0.0
1509030498312004873,21918,1509030498311818531,crazyflie/base_link,0.0,0.0,0.0,0.0,-1.0,0.0,0.0,0.0,0.0,0.0,0.0,0.0,0.0,0.00532632218016,-0.166181252021,-0.00852211548825,0.0,0.0,0.0,0.0,0.0,0.0,0.0,0.0,0.0,-0.186811523438,0.158071289063,9.03640869141,0.0,0.0,0.0,0.0,0.0,0.0,0.0,0.0,0.0
1509030498320569971,21919,1509030498320335359,crazyflie/base_link,0.0,0.0,0.0,0.0,-1.0,0.0,0.0,0.0,0.0,0.0,0.0,0.0,0.0,-0.0436758418773,-0.21198762277,0.0031957933081,0.0,0.0,0.0,0.0,0.0,0.0,0.0,0.0,0.0,-0.244291992188,0.129331054688,9.05317382813,0.0,0.0,0.0,0.0,0.0,0.0,0.0,0.0,0.0
1509030498330549353,21920,1509030498330275757,crazyflie/base_link,0.0,0.0,0.0,0.0,-1.0,0.0,0.0,0.0,0.0,0.0,0.0,0.0,0.0,-0.0756337749583,-0.226901324875,-0.0213052887206,0.0,0.0,0.0,0.0,0.0,0.0,0.0,0.0,0.0,-0.304167480469,0.1149609375,9.13699951172,0.0,0.0,0.0,0.0,0.0,0.0,0.0,0.0,0.0
1509030498340149565,21921,1509030498339980913,crazyflie/base_link,0.0,0.0,0.0,0.0,-1.0,0.0,0.0,0.0,0.0,0.0,0.0,0.0,0.0,-0.0788295682663,-0.209857093898,-0.0841558904465,0.0,0.0,0.0,0.0,0.0,0.0,0.0,0.0,0.0,-0.366437988281,0.13412109375,9.26872558594,0.0,0.0,0.0,0.0,0.0,0.0,0.0,0.0,0.0
1509030498351112700,21922,1509030498350816786,crazyflie/base_link,0.0,0.0,0.0,0.0,-1.0,0.0,0.0,0.0,0.0,0.0,0.0,0.0,0.0,-0.0511326929295,-0.159789665405,-0.142745434428,0.0,0.0,0.0,0.0,0.0,0.0,0.0,0.0,0.0,-0.435893554688,0.158071289063,9.40763671875,0.0,0.0,0.0,0.0,0.0,0.0,0.0,0.0,0.0
1509030498358962022,21923,1509030498358750083,crazyflie/base_link,0.0,0.0,0.0,0.0,-1.0,0.0,0.0,0.0,0.0,0.0,0.0,0.0,0.0,0.0,-0.0958737992429,-0.156593872097,0.0,0.0,0.0,0.0,0.0,0.0,0.0,0.0,0.0,-0.526904296875,0.174836425781,9.52738769531,0.0,0.0,0.0,0.0,0.0,0.0,0.0,0.0,0.0
1509030498370400949,21924,1509030498370285710,crazyflie/base_link,0.0,0.0,0.0,0.0,-1.0,0.0,0.0,0.0,0.0,0.0,0.0,0.0,0.0,0.0607200728538,-0.031957933081,-0.112918030219,0.0,0.0,0.0,0.0,0.0,0.0,0.0,0.0,0.0,-0.59396484375,0.150886230469,9.59205322266,0.0,0.0,0.0,0.0,0.0,0.0,0.0,0.0,0.0
1509030498380171925,21925,1509030498379997956,crazyflie/base_link,0.0,0.0,0.0,0.0,-1.0,0.0,0.0,0.0,0.0,0.0,0.0,0.0,0.0,0.129962261196,0.0117179087963,-0.0426105774413,0.0,0.0,0.0,0.0,0.0,0.0,0.0,0.0,0.0,-0.615520019531,0.105380859375,9.59444824219,0.0,0.0,0.0,0.0,0.0,0.0,0.0,0.0,0.0
1509030498389997208,21926,1509030498389751172,crazyflie/base_link,0.0,0.0,0.0,0.0,-1.0,0.0,0.0,0.0,0.0,0.0,0.0,0.0,0.0,0.160854929841,0.00852211548825,0.00532632218016,0.0,0.0,0.0,0.0,0.0,0.0,0.0,0.0,0.0,-0.608334960938,0.0263452148438,9.55133789062,0.0,0.0,0.0,0.0,0.0,0.0,0.0,0.0,0.0
1509030498401879745,21927,1509030498401723609,crazyflie/base_link,0.0,0.0,0.0,0.0,-1.0,0.0,0.0,0.0,0.0,0.0,0.0,0.0,0.0,0.142745434428,-0.0500674284935,0.0276968753368,0.0,0.0,0.0,0.0,0.0,0.0,0.0,0.0,0.0,-0.637075195313,-0.0910107421875,9.47709228516,0.0,0.0,0.0,0.0,0.0,0.0,0.0,0.0,0.0
1509030498410850768,21928,1509030498410603088,crazyflie/base_link,0.0,0.0,0.0,0.0,-1.0,0.0,0.0,0.0,0.0,0.0,0.0,0.0,0.0,0.0564590151097,-0.113983294655,0.0138484376684,0.0,0.0,0.0,0.0,0.0,0.0,0.0,0.0,0.0,-0.723295898438,-0.189206542969,9.41003173828,0.0,0.0,0.0,0.0,0.0,0.0,0.0,0.0,0.0
1509030498419369288,21929,1509030498419187655,crazyflie/base_link,0.0,0.0,0.0,0.0,-1.0,0.0,0.0,0.0,0.0,0.0,0.0,0.0,0.0,-0.0436758418773,-0.152332814353,-0.00958737992429,0.0,0.0,0.0,0.0,0.0,0.0,0.0,0.0,0.0,-0.86220703125,-0.265847167969,9.34776123047,0.0,0.0,0.0,0.0,0.0,0.0,0.0,0.0,0.0
1509030498429468128,21930,1509030498429272847,crazyflie/base_link,0.0,0.0,0.0,0.0,-1.0,0.0,0.0,0.0,0.0,0.0,0.0,0.0,0.0,-0.0905474770627,-0.132092790068,-0.0266316109008,0.0,0.0,0.0,0.0,0.0,0.0,0.0,0.0,0.0,-0.97716796875,-0.275427246094,9.34057617188,0.0,0.0,0.0,0.0,0.0,0.0,0.0,0.0,0.0
1509030498439156727,21931,1509030498439006754,crazyflie/base_link,0.0,0.0,0.0,0.0,-1.0,0.0,0.0,0.0,0.0,0.0,0.0,0.0,0.0,-0.0830906260105,-0.0447411063133,-0.0426105774413,0.0,0.0,0.0,0.0,0.0,0.0,0.0,0.0,0.0,-1.00830322266,-0.213156738281,9.3884765625,0.0,0.0,0.0,0.0,0.0,0.0,0.0,0.0,0.0
1509030498449879193,21932,1509030498449689851,crazyflie/base_link,0.0,0.0,0.0,0.0,-1.0,0.0,0.0,0.0,0.0,0.0,0.0,0.0,0.0,0.0031957933081,0.0617853372898,-0.0521979573656,0.0,0.0,0.0,0.0,0.0,0.0,0.0,0.0,0.0,-0.969982910156,-0.126936035156,9.45314208984,0.0,0.0,0.0,0.0,0.0,0.0,0.0,0.0,0.0
1509030498461451245,21933,1509030498461273219,crazyflie/base_link,0.0,0.0,0.0,0.0,-1.0,0.0,0.0,0.0,0.0,0.0,0.0,0.0,0.0,0.106526443603,0.143810698864,-0.0383495196971,0.0,0.0,0.0,0.0,0.0,0.0,0.0,0.0,0.0,-0.893342285156,-0.0215551757813,9.47948730469,0.0,0.0,0.0,0.0,0.0,0.0,0.0,0.0,0.0
1509030498470463911,21934,1509030498470303553,crazyflie/base_link,0.0,0.0,0.0,0.0,-1.0,0.0,0.0,0.0,0.0,0.0,0.0,0.0,0.0,0.180029689689,0.152332814353,-0.00745685105222,0.0,0.0,0.0,0.0,0.0,0.0,0.0,0.0,0.0,-0.775986328125,0.0359252929688,9.46272216797,0.0,0.0,0.0,0.0,0.0,0.0,0.0,0.0,0.0
1509030498478382022,21935,1509030498478254248,crazyflie/base_link,0.0,0.0,0.0,0.0,-1.0,0.0,0.0,0.0,0.0,0.0,0.0,0.0,0.0,0.209857093898,0.0990695925509,0.033023197517,0.0,0.0,0.0,0.0,0.0,0.0,0.0,0.0,0.0,-0.646655273438,0.0335302734375,9.41961181641,0.0,0.0,0.0,0.0,0.0,0.0,0.0,0.0,0.0
1509030498488337066,21936,1509030498488123912,crazyflie/base_link,0.0,0.0,0.0,0.0,-1.0,0.0,0.0,0.0,0.0,0.0,0.0,0.0,0.0,0.173638103073,0.00426105774413,0.0713727172141,0.0,0.0,0.0,0.0,0.0,0.0,0.0,0.0,0.0,-0.548459472656,-0.01916015625,9.34536621094,0.0,0.0,0.0,0.0,0.0,0.0,0.0,0.0,0.0
1509030498499889607,21937,1509030498499745432,crazyflie/base_link,0.0,0.0,0.0,0.0,-1.0,0.0,0.0,0.0,0.0,0.0,0.0,0.0,0.0,0.0980043281149,-0.0905474770627,0.103330650295,0.0,0.0,0.0,0.0,0.0,0.0,0.0,0.0,0.0,-0.493374023438,-0.107775878906,9.27830566406,0.0,0.0,0.0,0.0,0.0,0.0,0.0,0.0,0.0
1509030498510363920,21938,1509030498510136360,crazyflie/base_link,0.0,0.0,0.0,0.0,-1.0,0.0,0.0,0.0,0.0,0.0,0.0,0.0,0.0,0.00639158661619,-0.161920194277,0.108656972475,0.0,0.0,0.0,0.0,0.0,0.0,0.0,0.0,0.0,-0.502954101562,-0.189206542969,9.23759033203,0.0,0.0,0.0,0.0,0.0,0.0,0.0,0.0,0.0
1509030498518861646,21939,1509030498518675835,crazyflie/base_link,0.0,0.0,0.0,0.0,-1.0,0.0,0.0,0.0,0.0,0.0,0.0,0.0,0.0,-0.066046395034,-0.171507574201,0.0937432703708,0.0,0.0,0.0,0.0,0.0,0.0,0.0,0.0,0.0,-0.543669433594,-0.261057128906,9.25196044922,0.0,0.0,0.0,0.0,0.0,0.0,0.0,0.0,0.0
1509030498531032606,21940,1509030498530809534,crazyflie/base_link,0.0,0.0,0.0,0.0,-1.0,0.0,0.0,0.0,0.0,0.0,0.0,0.0,0.0,-0.105461179167,-0.115048559091,0.034088461953,0.0,0.0,0.0,0.0,0.0,0.0,0.0,0.0,0.0,-0.59396484375,-0.289797363281,9.30704589844,0.0,0.0,0.0,0.0,0.0,0.0,0.0,0.0,0.0
1509030498538668669,21941,1509030498538534414,crazyflie/base_link,0.0,0.0,0.0,0.0,-1.0,0.0,0.0,0.0,0.0,0.0,0.0,0.0,0.0,-0.111852765783,-0.0298274042089,-0.0458063707494,0.0,0.0,0.0,0.0,0.0,0.0,0.0,0.0,0.0,-0.625100097656,-0.277822265625,9.37650146484,0.0,0.0,0.0,0.0,0.0,0.0,0.0,0.0,0.0
1509030498549504965,21942,1509030498549175058,crazyflie/base_link,0.0,0.0,0.0,0.0,-1.0,0.0,0.0,0.0,0.0,0.0,0.0,0.0,0.0,-0.0809600971384,0.0372842552611,-0.101200121423,0.0,0.0,0.0,0.0,0.0,0.0,0.0,0.0,0.0,-0.6514453125,-0.227526855469,9.46751220703,0.0,0.0,0.0,0.0,0.0,0.0,0.0,0.0,0.0
1509030498560992585,21943,1509030498560744062,crazyflie/base_link,0.0,0.0,0.0,0.0,-1.0,0.0,0.0,0.0,0.0,0.0,0.0,0.0,0.0,-0.0553937506736,0.0607200728538,-0.0894822126267,0.0,0.0,0.0,0.0,0.0,0.0,0.0,0.0,0.0,-0.649050292969,-0.13412109375,9.59923828125,0.0,0.0,0.0,0.0,0.0,0.0,0.0,0.0,0.0
1509030498568751911,21944,1509030498568568845,crazyflie/base_link,0.0,0.0,0.0,0.0,-1.0,0.0,0.0,0.0,0.0,0.0,0.0,0.0,0.0,-0.0266316109008,0.0532632218016,-0.0266316109008,0.0,0.0,0.0,0.0,0.0,0.0,0.0,0.0,0.0,-0.627495117188,-0.0455053710938,9.71659423828,0.0,0.0,0.0,0.0,0.0,0.0,0.0,0.0,0.0
1509030498578544009,21945,1509030498578296852,crazyflie/base_link,0.0,0.0,0.0,0.0,-1.0,0.0,0.0,0.0,0.0,0.0,0.0,0.0,0.0,0.0127831732324,0.0511326929295,0.0500674284935,0.0,0.0,0.0,0.0,0.0,0.0,0.0,0.0,0.0,-0.572409667969,-0.0143701171875,9.81479003906,0.0,0.0,0.0,0.0,0.0,0.0,0.0,0.0,0.0
1509030498590092885,21946,1509030498589893672,crazyflie/base_link,0.0,0.0,0.0,0.0,-1.0,0.0,0.0,0.0,0.0,0.0,0.0,0.0,0.0,0.0308926686449,0.0766990393943,0.0820253615744,0.0,0.0,0.0,0.0,0.0,0.0,0.0,0.0,0.0,-0.510139160156,-0.028740234375,9.86508544922,0.0,0.0,0.0,0.0,0.0,0.0,0.0,0.0,0.0
1509030498597962870,21947,1509030498597745028,crazyflie/base_link,0.0,0.0,0.0,0.0,-1.0,0.0,0.0,0.0,0.0,0.0,0.0,0.0,0.0,0.0532632218016,0.124635939016,0.0703074527781,0.0,0.0,0.0,0.0,0.0,0.0,0.0,0.0,0.0,-0.474213867188,-0.0910107421875,9.85550537109,0.0,0.0,0.0,0.0,0.0,0.0,0.0,0.0,0.0
1509030498608376064,21948,1509030498608206154,crazyflie/base_link,0.0,0.0,0.0,0.0,-1.0,0.0,0.0,0.0,0.0,0.0,0.0,0.0,0.0,0.0394147841332,0.18535601187,0.0234358175927,0.0,0.0,0.0,0.0,0.0,0.0,0.0,0.0,0.0,-0.438288574219,-0.179626464844,9.80281494141,0.0,0.0,0.0,0.0,0.0,0.0,0.0,0.0,0.0
1509030498618782729,21949,1509030498618535780,crazyflie/base_link,0.0,0.0,0.0,0.0,-1.0,0.0,0.0,0.0,0.0,0.0,0.0,0.0,0.0,0.031957933081,0.223705531567,-0.0308926686449,0.0,0.0,0.0,0.0,0.0,0.0,0.0,0.0,0.0,-0.409548339844,-0.24908203125,9.73814941406,0.0,0.0,0.0,0.0,0.0,0.0,0.0,0.0,0.0
1509030498628415130,21950,1509030498628248646,crazyflie/base_link,0.0,0.0,0.0,0.0,-1.0,0.0,0.0,0.0,0.0,0.0,0.0,0.0,0.0,0.0202400242846,0.239684498107,-0.0521979573656,0.0,0.0,0.0,0.0,0.0,0.0,0.0,0.0,0.0,-0.371228027344,-0.285007324219,9.65432373047,0.0,0.0,0.0,0.0,0.0,0.0,0.0,0.0,0.0
1509030498638231639,21951,1509030498638028778,crazyflie/base_link,0.0,0.0,0.0,0.0,-1.0,0.0,0.0,0.0,0.0,0.0,0.0,0.0,0.0,0.00532632218016,0.232227647055,-0.0234358175927,0.0,0.0,0.0,0.0,0.0,0.0,0.0,0.0,0.0,-0.311352539062,-0.299377441406,9.55852294922,0.0,0.0,0.0,0.0,0.0,0.0,0.0,0.0,0.0
1509030498655888475,21952,1509030498655558297,crazyflie/base_link,0.0,0.0,0.0,0.0,-1.0,0.0,0.0,0.0,0.0,0.0,0.0,0.0,0.0,0.0298274042089,0.207726565026,0.0255663464648,0.0,0.0,0.0,0.0,0.0,0.0,0.0,0.0,0.0,-0.196391601563,-0.289797363281,9.46751220703,0.0,0.0,0.0,0.0,0.0,0.0,0.0,0.0,0.0
1509030498658188285,21953,1509030498657987904,crazyflie/base_link,0.0,0.0,0.0,0.0,-1.0,0.0,0.0,0.0,0.0,0.0,0.0,0.0,0.0,0.0447411063133,0.167246516457,0.0490021640575,0.0,0.0,0.0,0.0,0.0,0.0,0.0,0.0,0.0,-0.0622705078125,-0.241896972656,9.37889648437,0.0,0.0,0.0,0.0,0.0,0.0,0.0,0.0,0.0
1509030498668202034,21954,1509030498667991698,crazyflie/base_link,0.0,0.0,0.0,0.0,-1.0,0.0,0.0,0.0,0.0,0.0,0.0,0.0,0.0,0.0436758418773,0.0926780059348,0.0394147841332,0.0,0.0,0.0,0.0,0.0,0.0,0.0,0.0,0.0,0.0167651367188,-0.189206542969,9.29507080078,0.0,0.0,0.0,0.0,0.0,0.0,0.0,0.0,0.0
1509030498679607637,21955,1509030498679427324,crazyflie/base_link,0.0,0.0,0.0,0.0,-1.0,0.0,0.0,0.0,0.0,0.0,0.0,0.0,0.0,0.0159789665405,0.00532632218016,0.0181094954125,0.0,0.0,0.0,0.0,0.0,0.0,0.0,0.0,0.0,0.028740234375,-0.143701171875,9.24717041016,0.0,0.0,0.0,0.0,0.0,0.0,0.0,0.0,0.0
1509030498690565183,21956,1509030498690367518,crazyflie/base_link,0.0,0.0,0.0,0.0,-1.0,0.0,0.0,0.0,0.0,0.0,0.0,0.0,0.0,-0.0234358175927,-0.0745685105222,0.0159789665405,0.0,0.0,0.0,0.0,0.0,0.0,0.0,0.0,0.0,0.0,-0.0694555664063,9.25196044922,0.0,0.0,0.0,0.0,0.0,0.0,0.0,0.0,0.0
1509030498698545435,21957,1509030498698292438,crazyflie/base_link,0.0,0.0,0.0,0.0,-1.0,0.0,0.0,0.0,0.0,0.0,0.0,0.0,0.0,-0.0511326929295,-0.0830906260105,0.0308926686449,0.0,0.0,0.0,0.0,0.0,0.0,0.0,0.0,0.0,-0.00239501953125,0.0119750976563,9.31662597656,0.0,0.0,0.0,0.0,0.0,0.0,0.0,0.0,0.0
1509030498708605847,21958,1509030498708355356,crazyflie/base_link,0.0,0.0,0.0,0.0,-1.0,0.0,0.0,0.0,0.0,0.0,0.0,0.0,0.0,-0.033023197517,-0.0372842552611,0.0426105774413,0.0,0.0,0.0,0.0,0.0,0.0,0.0,0.0,0.0,0.0215551757813,0.107775878906,9.39087158203,0.0,0.0,0.0,0.0,0.0,0.0,0.0,0.0,0.0
1509030498719246869,21959,1509030498718830913,crazyflie/base_link,0.0,0.0,0.0,0.0,-1.0,0.0,0.0,0.0,0.0,0.0,0.0,0.0,0.0,0.00958737992429,0.0607200728538,0.0106526443603,0.0,0.0,0.0,0.0,0.0,0.0,0.0,0.0,0.0,0.102985839844,0.229921875,9.44595703125,0.0,0.0,0.0,0.0,0.0,0.0,0.0,0.0,0.0
1509030498727817386,21960,1509030498727676518,crazyflie/base_link,0.0,0.0,0.0,0.0,-1.0,0.0,0.0,0.0,0.0,0.0,0.0,0.0,0.0,0.0766990393943,0.133158054504,-0.0447411063133,0.0,0.0,0.0,0.0,0.0,0.0,0.0,0.0,0.0,0.227526855469,0.330512695312,9.49146240234,0.0,0.0,0.0,0.0,0.0,0.0,0.0,0.0,0.0
1509030498739362403,21961,1509030498739175367,crazyflie/base_link,0.0,0.0,0.0,0.0,-1.0,0.0,0.0,0.0,0.0,0.0,0.0,0.0,0.0,0.126766467888,0.143810698864,-0.0980043281149,0.0,0.0,0.0,0.0,0.0,0.0,0.0,0.0,0.0,0.335302734375,0.409548339844,9.52020263672,0.0,0.0,0.0,0.0,0.0,0.0,0.0,0.0,0.0
1509030498748089787,21962,1509030498747945627,crazyflie/base_link,0.0,0.0,0.0,0.0,-1.0,0.0,0.0,0.0,0.0,0.0,0.0,0.0,0.0,0.141680169992,0.0777643038303,-0.104395914731,0.0,0.0,0.0,0.0,0.0,0.0,0.0,0.0,0.0,0.332907714844,0.4215234375,9.48906738281,0.0,0.0,0.0,0.0,0.0,0.0,0.0,0.0,0.0
1509030498757993937,21963,1509030498757781507,crazyflie/base_link,0.0,0.0,0.0,0.0,-1.0,0.0,0.0,0.0,0.0,0.0,0.0,0.0,0.0,0.0948085348068,0.00532632218016,-0.0532632218016,0.0,0.0,0.0,0.0,0.0,0.0,0.0,0.0,0.0,0.239501953125,0.347277832031,9.43158691406,0.0,0.0,0.0,0.0,0.0,0.0,0.0,0.0,0.0
1509030498768152147,21964,1509030498768038024,crazyflie/base_link,0.0,0.0,0.0,0.0,-1.0,0.0,0.0,0.0,0.0,0.0,0.0,0.0,0.0,0.0404800485692,-0.0234358175927,-0.00213052887206,0.0,0.0,0.0,0.0,0.0,0.0,0.0,0.0,0.0,0.0934057617188,0.239501953125,9.35015625,0.0,0.0,0.0,0.0,0.0,0.0,0.0,0.0,0.0
1509030498785123859,21965,1509030498784883502,crazyflie/base_link,0.0,0.0,0.0,0.0,-1.0,0.0,0.0,0.0,0.0,0.0,0.0,0.0,0.0,0.0159789665405,0.031957933081,0.00639158661619,0.0,0.0,0.0,0.0,0.0,0.0,0.0,0.0,0.0,-0.00718505859375,0.1149609375,9.24717041016,0.0,0.0,0.0,0.0,0.0,0.0,0.0,0.0,0.0
1509030498791116825,21966,1509030498790939277,crazyflie/base_link,0.0,0.0,0.0,0.0,-1.0,0.0,0.0,0.0,0.0,0.0,0.0,0.0,0.0,0.0202400242846,0.125701203452,-0.0415453130052,0.0,0.0,0.0,0.0,0.0,0.0,0.0,0.0,0.0,-0.09580078125,-0.0311352539063,9.09628417969,0.0,0.0,0.0,0.0,0.0,0.0,0.0,0.0,0.0
1509030498799016699,21967,1509030498798859991,crazyflie/base_link,0.0,0.0,0.0,0.0,-1.0,0.0,0.0,0.0,0.0,0.0,0.0,0.0,0.0,0.0223705531567,0.187486540742,-0.0948085348068,0.0,0.0,0.0,0.0,0.0,0.0,0.0,0.0,0.0,-0.170046386719,-0.177231445313,8.93342285156,0.0,0.0,0.0,0.0,0.0,0.0,0.0,0.0,0.0
1509030498807763843,21968,1509030498807537846,crazyflie/base_link,0.0,0.0,0.0,0.0,-1.0,0.0,0.0,0.0,0.0,0.0,0.0,0.0,0.0,-0.0127831732324,0.148071756608,-0.13422331894,0.0,0.0,0.0,0.0,0.0,0.0,0.0,0.0,0.0,-0.251477050781,-0.241896972656,8.83283203125,0.0,0.0,0.0,0.0,0.0,0.0,0.0,0.0,0.0
1509030498818553968,21969,1509030498818196656,crazyflie/base_link,0.0,0.0,0.0,0.0,-1.0,0.0,0.0,0.0,0.0,0.0,0.0,0.0,0.0,-0.0820253615744,0.0276968753368,-0.135288583376,0.0,0.0,0.0,0.0,0.0,0.0,0.0,0.0,0.0,-0.316142578125,-0.241896972656,8.813671875,0.0,0.0,0.0,0.0,0.0,0.0,0.0,0.0,0.0
1509030498829236118,21970,1509030498828979486,crazyflie/base_link,0.0,0.0,0.0,0.0,-1.0,0.0,0.0,0.0,0.0,0.0,0.0,0.0,0.0,-0.136353847812,-0.100134856987,-0.0777643038303,0.0,0.0,0.0,0.0,0.0,0.0,0.0,0.0,0.0,-0.390388183594,-0.227526855469,8.8519921875,0.0,0.0,0.0,0.0,0.0,0.0,0.0,0.0,0.0
1509030498836987035,21971,1509030498836868033,crazyflie/base_link,0.0,0.0,0.0,0.0,-1.0,0.0,0.0,0.0,0.0,0.0,0.0,0.0,0.0,-0.156593872097,-0.160854929841,0.0138484376684,0.0,0.0,0.0,0.0,0.0,0.0,0.0,0.0,0.0,-0.447868652344,-0.227526855469,8.91426269531,0.0,0.0,0.0,0.0,0.0,0.0,0.0,0.0,0.0
1509030498847828178,21972,1509030498847656197,crazyflie/base_link,0.0,0.0,0.0,0.0,-1.0,0.0,0.0,0.0,0.0,0.0,0.0,0.0,0.0,-0.125701203452,-0.129962261196,0.0809600971384,0.0,0.0,0.0,0.0,0.0,0.0,0.0,0.0,0.0,-0.476608886719,-0.246687011719,8.97174316406,0.0,0.0,0.0,0.0,0.0,0.0,0.0,0.0,0.0
1509030498858307098,21973,1509030498858161122,crazyflie/base_link,0.0,0.0,0.0,0.0,-1.0,0.0,0.0,0.0,0.0,0.0,0.0,0.0,0.0,-0.0788295682663,-0.0458063707494,0.0873516837546,0.0,0.0,0.0,0.0,0.0,0.0,0.0,0.0,0.0,-0.457448730469,-0.28740234375,9.02922363281,0.0,0.0,0.0,0.0,0.0,0.0,0.0,0.0,0.0
1509030498868290181,21974,1509030498868098138,crazyflie/base_link,0.0,0.0,0.0,0.0,-1.0,0.0,0.0,0.0,0.0,0.0,0.0,0.0,0.0,-0.0415453130052,0.0031957933081,0.068176923906,0.0,0.0,0.0,0.0,0.0,0.0,0.0,0.0,0.0,-0.443078613281,-0.359252929688,9.06275390625,0.0,0.0,0.0,0.0,0.0,0.0,0.0,0.0,0.0
1509030498879575189,21975,1509030498879397521,crazyflie/base_link,0.0,0.0,0.0,0.0,-1.0,0.0,0.0,0.0,0.0,0.0,0.0,0.0,0.0,-0.034088461953,-0.00852211548825,0.068176923906,0.0,0.0,0.0,0.0,0.0,0.0,0.0,0.0,0.0,-0.431103515625,-0.438288574219,9.09388916016,0.0,0.0,0.0,0.0,0.0,0.0,0.0,0.0,0.0
1509030498886871550,21976,1509030498886724473,crazyflie/base_link,0.0,0.0,0.0,0.0,-1.0,0.0,0.0,0.0,0.0,0.0,0.0,0.0,0.0,-0.0777643038303,-0.0735032460862,0.0873516837546,0.0,0.0,0.0,0.0,0.0,0.0,0.0,0.0,0.0,-0.407153320313,-0.500559082031,9.15376464844,0.0,0.0,0.0,0.0,0.0,0.0,0.0,0.0,0.0
1509030498898129069,21977,1509030498898017506,crazyflie/base_link,0.0,0.0,0.0,0.0,-1.0,0.0,0.0,0.0,0.0,0.0,0.0,0.0,0.0,-0.135288583376,-0.175768631945,0.0969390636789,0.0,0.0,0.0,0.0,0.0,0.0,0.0,0.0,0.0,-0.380808105469,-0.536484375,9.23998535156,0.0,0.0,0.0,0.0,0.0,0.0,0.0,0.0,0.0
1509030498910362958,21978,1509030498910104154,crazyflie/base_link,0.0,0.0,0.0,0.0,-1.0,0.0,0.0,0.0,0.0,0.0,0.0,0.0,0.0,-0.168311780893,-0.25779399352,0.111852765783,0.0,0.0,0.0,0.0,0.0,0.0,0.0,0.0,0.0,-0.371228027344,-0.5748046875,9.30704589844,0.0,0.0,0.0,0.0,0.0,0.0,0.0,0.0,0.0
1509030498918642628,21979,1509030498918480197,crazyflie/base_link,0.0,0.0,0.0,0.0,-1.0,0.0,0.0,0.0,0.0,0.0,0.0,0.0,0.0,-0.175768631945,-0.296143513217,0.1182443524,0.0,0.0,0.0,0.0,0.0,0.0,0.0,0.0,0.0,-0.397573242188,-0.598754882812,9.40045166016,0.0,0.0,0.0,0.0,0.0,0.0,0.0,0.0,0.0
1509030498927682621,21980,1509030498927482368,crazyflie/base_link,0.0,0.0,0.0,0.0,-1.0,0.0,0.0,0.0,0.0,0.0,0.0,0.0,0.0,-0.186421276306,-0.27909928224,0.111852765783,0.0,0.0,0.0,0.0,0.0,0.0,0.0,0.0,0.0,-0.483793945313,-0.59396484375,9.50822753906,0.0,0.0,0.0,0.0,0.0,0.0,0.0,0.0,0.0
1509030498937282389,21981,1509030498937155765,crazyflie/base_link,0.0,0.0,0.0,0.0,-1.0,0.0,0.0,0.0,0.0,0.0,0.0,0.0,0.0,-0.187486540742,-0.222640267131,0.0990695925509,0.0,0.0,0.0,0.0,0.0,0.0,0.0,0.0,0.0,-0.581989746094,-0.558039550781,9.63516357422,0.0,0.0,0.0,0.0,0.0,0.0,0.0,0.0,0.0
1509030498948364680,21982,1509030498948116838,crazyflie/base_link,0.0,0.0,0.0,0.0,-1.0,0.0,0.0,0.0,0.0,0.0,0.0,0.0,0.0,-0.164050723149,-0.137419112248,0.068176923906,0.0,0.0,0.0,0.0,0.0,0.0,0.0,0.0,0.0,-0.622705078125,-0.462238769531,9.75491455078,0.0,0.0,0.0,0.0,0.0,0.0,0.0,0.0,0.0
1509030498958055484,21983,1509030498957889191,crazyflie/base_link,0.0,0.0,0.0,0.0,-1.0,0.0,0.0,0.0,0.0,0.0,0.0,0.0,0.0,-0.0862864193186,-0.0468716351854,0.035153726389,0.0,0.0,0.0,0.0,0.0,0.0,0.0,0.0,0.0,-0.553249511719,-0.359252929688,9.83155517578,0.0,0.0,0.0,0.0,0.0,0.0,0.0,0.0,0.0
1509030498968369041,21984,1509030498968133272,crazyflie/base_link,0.0,0.0,0.0,0.0,-1.0,0.0,0.0,0.0,0.0,0.0,0.0,0.0,0.0,0.0,0.00106526443603,0.0287621397729,0.0,0.0,0.0,0.0,0.0,0.0,0.0,0.0,0.0,-0.467028808594,-0.241896972656,9.84353027344,0.0,0.0,0.0,0.0,0.0,0.0,0.0,0.0,0.0
1509030498977971027,21985,1509030498977767366,crazyflie/base_link,0.0,0.0,0.0,0.0,-1.0,0.0,0.0,0.0,0.0,0.0,0.0,0.0,0.0,0.0298274042089,-0.0255663464648,0.0532632218016,0.0,0.0,0.0,0.0,0.0,0.0,0.0,0.0,0.0,-0.426313476563,-0.143701171875,9.80281494141,0.0,0.0,0.0,0.0,0.0,0.0,0.0,0.0,0.0
1509030498986833075,21986,1509030498986670518,crazyflie/base_link,0.0,0.0,0.0,0.0,-1.0,0.0,0.0,0.0,0.0,0.0,0.0,0.0,0.0,-0.00426105774413,-0.115048559091,0.119309616836,0.0,0.0,0.0,0.0,0.0,0.0,0.0,0.0,0.0,-0.447868652344,-0.076640625,9.75012451172,0.0,0.0,0.0,0.0,0.0,0.0,0.0,0.0,0.0
1509030498998316236,21987,1509030498998112818,crazyflie/base_link,0.0,0.0,0.0,0.0,-1.0,0.0,0.0,0.0,0.0,0.0,0.0,0.0,0.0,-0.06711165947,-0.191747598486,0.178964425253,0.0,0.0,0.0,0.0,0.0,0.0,0.0,0.0,0.0,-0.500559082031,-0.028740234375,9.71419921875,0.0,0.0,0.0,0.0,0.0,0.0,0.0,0.0,0.0
1509030499006212867,21988,1509030499005992854,crazyflie/base_link,0.0,0.0,0.0,0.0,-1.0,0.0,0.0,0.0,0.0,0.0,0.0,0.0,0.0,-0.117179087963,-0.192812862922,0.157659136533,0.0,0.0,0.0,0.0,0.0,0.0,0.0,0.0,0.0,-0.51732421875,0.0335302734375,9.70940917969,0.0,0.0,0.0,0.0,0.0,0.0,0.0,0.0,0.0
1509030499018202790,21989,1509030499018017863,crazyflie/base_link,0.0,0.0,0.0,0.0,-1.0,0.0,0.0,0.0,0.0,0.0,0.0,0.0,0.0,-0.106526443603,-0.117179087963,0.0713727172141,0.0,0.0,0.0,0.0,0.0,0.0,0.0,0.0,0.0,-0.495769042969,0.0790356445313,9.72377929687,0.0,0.0,0.0,0.0,0.0,0.0,0.0,0.0,0.0
1509030499026354304,21990,1509030499026104952,crazyflie/base_link,0.0,0.0,0.0,0.0,-1.0,0.0,0.0,0.0,0.0,0.0,0.0,0.0,0.0,-0.0500674284935,-0.00852211548825,-0.00958737992429,0.0,0.0,0.0,0.0,0.0,0.0,0.0,0.0,0.0,-0.471818847656,0.1149609375,9.73096435547,0.0,0.0,0.0,0.0,0.0,0.0,0.0,0.0,0.0
1509030499044925742,21991,1509030499044690036,crazyflie/base_link,0.0,0.0,0.0,0.0,-1.0,0.0,0.0,0.0,0.0,0.0,0.0,0.0,0.0,0.00426105774413,0.068176923906,-0.0500674284935,0.0,0.0,0.0,0.0,0.0,0.0,0.0,0.0,0.0,-0.467028808594,0.186811523438,9.73814941406,0.0,0.0,0.0,0.0,0.0,0.0,0.0,0.0,0.0
1509030499047219990,21992,1509030499047116900,crazyflie/base_link,0.0,0.0,0.0,0.0,-1.0,0.0,0.0,0.0,0.0,0.0,0.0,0.0,0.0,0.0266316109008,0.0884169481906,-0.0223705531567,0.0,0.0,0.0,0.0,0.0,0.0,0.0,0.0,0.0,-0.47900390625,0.256267089844,9.73575439453,0.0,0.0,0.0,0.0,0.0,0.0,0.0,0.0,0.0
1509030499057360753,21993,1509030499057127049,crazyflie/base_link,0.0,0.0,0.0,0.0,-1.0,0.0,0.0,0.0,0.0,0.0,0.0,0.0,0.0,0.0149137021044,0.0649811305979,0.035153726389,0.0,0.0,0.0,0.0,0.0,0.0,0.0,0.0,0.0,-0.529299316406,0.294587402344,9.75251953125,0.0,0.0,0.0,0.0,0.0,0.0,0.0,0.0,0.0
1509030499068017823,21994,1509030499067767305,crazyflie/base_link,0.0,0.0,0.0,0.0,-1.0,0.0,0.0,0.0,0.0,0.0,0.0,0.0,0.0,-0.00106526443603,0.0490021640575,0.110787501347,0.0,0.0,0.0,0.0,0.0,0.0,0.0,0.0,0.0,-0.603544921875,0.261057128906,9.70461914063,0.0,0.0,0.0,0.0,0.0,0.0,0.0,0.0,0.0
1509030499077632219,21995,1509030499077377729,crazyflie/base_link,0.0,0.0,0.0,0.0,-1.0,0.0,0.0,0.0,0.0,0.0,0.0,0.0,0.0,-0.0149137021044,0.0628506017259,0.172572838637,0.0,0.0,0.0,0.0,0.0,0.0,0.0,0.0,0.0,-0.649050292969,0.17244140625,9.63276855469,0.0,0.0,0.0,0.0,0.0,0.0,0.0,0.0,0.0
1509030499086030702,21996,1509030499085759972,crazyflie/base_link,0.0,0.0,0.0,0.0,-1.0,0.0,0.0,0.0,0.0,0.0,0.0,0.0,0.0,-0.00745685105222,0.0724379816502,0.173638103073,0.0,0.0,0.0,0.0,0.0,0.0,0.0,0.0,0.0,-0.668210449219,0.112565917969,9.59444824219,0.0,0.0,0.0,0.0,0.0,0.0,0.0,0.0,0.0
1509030499097459214,21997,1509030499097301098,crazyflie/base_link,0.0,0.0,0.0,0.0,-1.0,0.0,0.0,0.0,0.0,0.0,0.0,0.0,0.0,-0.0223705531567,0.0692421883421,0.145941227736,0.0,0.0,0.0,0.0,0.0,0.0,0.0,0.0,0.0,-0.661025390625,0.0910107421875,9.55852294922,0.0,0.0,0.0,0.0,0.0,0.0,0.0,0.0,0.0
1509030499107950458,21998,1509030499107771492,crazyflie/base_link,0.0,0.0,0.0,0.0,-1.0,0.0,0.0,0.0,0.0,0.0,0.0,0.0,0.0,-0.0436758418773,0.0500674284935,0.1182443524,0.0,0.0,0.0,0.0,0.0,0.0,0.0,0.0,0.0,-0.536484375,0.0742456054688,9.54654785156,0.0,0.0,0.0,0.0,0.0,0.0,0.0,0.0,0.0
1509030499116412014,21999,1509030499116257965,crazyflie/base_link,0.0,0.0,0.0,0.0,-1.0,0.0,0.0,0.0,0.0,0.0,0.0,0.0,0.0,-0.0031957933081,-0.00958737992429,0.0724379816502,0.0,0.0,0.0,0.0,0.0,0.0,0.0,0.0,0.0,-0.332907714844,0.1149609375,9.55852294922,0.0,0.0,0.0,0.0,0.0,0.0,0.0,0.0,0.0
1509030499126263070,22000,1509030499126051811,crazyflie/base_link,0.0,0.0,0.0,0.0,-1.0,0.0,0.0,0.0,0.0,0.0,0.0,0.0,0.0,0.031957933081,-0.125701203452,0.0436758418773,0.0,0.0,0.0,0.0,0.0,0.0,0.0,0.0,0.0,-0.141306152344,0.162861328125,9.60881835938,0.0,0.0,0.0,0.0,0.0,0.0,0.0,0.0,0.0
1509030499135811223,22001,1509030499135575281,crazyflie/base_link,0.0,0.0,0.0,0.0,-1.0,0.0,0.0,0.0,0.0,0.0,0.0,0.0,0.0,0.0468716351854,-0.262055051264,0.100134856987,0.0,0.0,0.0,0.0,0.0,0.0,0.0,0.0,0.0,-0.100590820313,0.155676269531,9.64474365234,0.0,0.0,0.0,0.0,0.0,0.0,0.0,0.0,0.0
1509030499146312548,22002,1509030499146204327,crazyflie/base_link,0.0,0.0,0.0,0.0,-1.0,0.0,0.0,0.0,0.0,0.0,0.0,0.0,0.0,0.0234358175927,-0.358994114943,0.200269713974,0.0,0.0,0.0,0.0,0.0,0.0,0.0,0.0,0.0,-0.189206542969,0.131726074219,9.68785400391,0.0,0.0,0.0,0.0,0.0,0.0,0.0,0.0,0.0
1509030499156174644,22003,1509030499155963642,crazyflie/base_link,0.0,0.0,0.0,0.0,-1.0,0.0,0.0,0.0,0.0,0.0,0.0,0.0,0.0,0.00106526443603,-0.332362504042,0.25779399352,0.0,0.0,0.0,0.0,0.0,0.0,0.0,0.0,0.0,-0.273032226563,0.086220703125,9.75251953125,0.0,0.0,0.0,0.0,0.0,0.0,0.0,0.0,0.0
1509030499170291773,22004,1509030499170070922,crazyflie/base_link,0.0,0.0,0.0,0.0,-1.0,0.0,0.0,0.0,0.0,0.0,0.0,0.0,0.0,0.0575242795457,-0.20133497841,0.247141349159,0.0,0.0,0.0,0.0,0.0,0.0,0.0,0.0,0.0,-0.304167480469,0.009580078125,9.77886474609,0.0,0.0,0.0,0.0,0.0,0.0,0.0,0.0,0.0
1509030499176247676,22005,1509030499176039762,crazyflie/base_link,0.0,0.0,0.0,0.0,-1.0,0.0,0.0,0.0,0.0,0.0,0.0,0.0,0.0,0.117179087963,-0.0362189908251,0.192812862922,0.0,0.0,0.0,0.0,0.0,0.0,0.0,0.0,0.0,-0.335302734375,-0.0886157226563,9.733359375,0.0,0.0,0.0,0.0,0.0,0.0,0.0,0.0,0.0
1509030499186278926,22006,1509030499186022025,crazyflie/base_link,0.0,0.0,0.0,0.0,-1.0,0.0,0.0,0.0,0.0,0.0,0.0,0.0,0.0,0.147006492172,0.0980043281149,0.145941227736,0.0,0.0,0.0,0.0,0.0,0.0,0.0,0.0,0.0,-0.385598144531,-0.225131835938,9.60642333984,0.0,0.0,0.0,0.0,0.0,0.0,0.0,0.0,0.0
1509030499197488943,22007,1509030499197348688,crazyflie/base_link,0.0,0.0,0.0,0.0,-1.0,0.0,0.0,0.0,0.0,0.0,0.0,0.0,0.0,0.113983294655,0.15020228548,0.0990695925509,0.0,0.0,0.0,0.0,0.0,0.0,0.0,0.0,0.0,-0.395178222656,-0.352067871094,9.49385742188,0.0,0.0,0.0,0.0,0.0,0.0,0.0,0.0,0.0
1509030499206458537,22008,1509030499206214910,crazyflie/base_link,0.0,0.0,0.0,0.0,-1.0,0.0,0.0,0.0,0.0,0.0,0.0,0.0,0.0,0.066046395034,0.126766467888,0.0255663464648,0.0,0.0,0.0,0.0,0.0,0.0,0.0,0.0,0.0,-0.32572265625,-0.411943359375,9.43398193359,0.0,0.0,0.0,0.0,0.0,0.0,0.0,0.0,0.0
1509030499216711666,22009,1509030499216483058,crazyflie/base_link,0.0,0.0,0.0,0.0,-1.0,0.0,0.0,0.0,0.0,0.0,0.0,0.0,0.0,0.034088461953,0.0500674284935,-0.0266316109008,0.0,0.0,0.0,0.0,0.0,0.0,0.0,0.0,0.0,-0.225131835938,-0.416733398438,9.42200683594,0.0,0.0,0.0,0.0,0.0,0.0,0.0,0.0,0.0
1509030499226518669,22010,1509030499226271718,crazyflie/base_link,0.0,0.0,0.0,0.0,-1.0,0.0,0.0,0.0,0.0,0.0,0.0,0.0,0.0,0.0266316109008,-0.0223705531567,-0.00426105774413,0.0,0.0,0.0,0.0,0.0,0.0,0.0,0.0,0.0,-0.158071289063,-0.373623046875,9.43398193359,0.0,0.0,0.0,0.0,0.0,0.0,0.0,0.0,0.0
1509030499236156550,22011,1509030499235980013,crazyflie/base_link,0.0,0.0,0.0,0.0,-1.0,0.0,0.0,0.0,0.0,0.0,0.0,0.0,0.0,0.0628506017259,-0.0628506017259,0.0798948327024,0.0,0.0,0.0,0.0,0.0,0.0,0.0,0.0,0.0,-0.13412109375,-0.354462890625,9.41961181641,0.0,0.0,0.0,0.0,0.0,0.0,0.0,0.0,0.0
1509030499246763673,22012,1509030499246659730,crazyflie/base_link,0.0,0.0,0.0,0.0,-1.0,0.0,0.0,0.0,0.0,0.0,0.0,0.0,0.0,0.117179087963,-0.0415453130052,0.168311780893,0.0,0.0,0.0,0.0,0.0,0.0,0.0,0.0,0.0,-0.119750976562,-0.366437988281,9.36452636719,0.0,0.0,0.0,0.0,0.0,0.0,0.0,0.0,0.0
1509030499256617799,22013,1509030499256395941,crazyflie/base_link,0.0,0.0,0.0,0.0,-1.0,0.0,0.0,0.0,0.0,0.0,0.0,0.0,0.0,0.152332814353,0.0031957933081,0.178964425253,0.0,0.0,0.0,0.0,0.0,0.0,0.0,0.0,0.0,-0.0742456054688,-0.397573242188,9.29267578125,0.0,0.0,0.0,0.0,0.0,0.0,0.0,0.0,0.0
1509030499267284689,22014,1509030499267108076,crazyflie/base_link,0.0,0.0,0.0,0.0,-1.0,0.0,0.0,0.0,0.0,0.0,0.0,0.0,0.0,0.182160218561,0.0213052887206,0.151267549917,0.0,0.0,0.0,0.0,0.0,0.0,0.0,0.0,0.0,-0.0622705078125,-0.4981640625,9.17771484375,0.0,0.0,0.0,0.0,0.0,0.0,0.0,0.0,0.0
1509030499275246132,22015,1509030499275028729,crazyflie/base_link,0.0,0.0,0.0,0.0,-1.0,0.0,0.0,0.0,0.0,0.0,0.0,0.0,0.0,0.13954964112,0.00213052887206,0.151267549917,0.0,0.0,0.0,0.0,0.0,0.0,0.0,0.0,0.0,-0.076640625,-0.63228515625,9.04119873047,0.0,0.0,0.0,0.0,0.0,0.0,0.0,0.0,0.0
1509030499285946590,22016,1509030499285738009,crazyflie/base_link,0.0,0.0,0.0,0.0,-1.0,0.0,0.0,0.0,0.0,0.0,0.0,0.0,0.0,0.0394147841332,-0.0532632218016,0.156593872097,0.0,0.0,0.0,0.0,0.0,0.0,0.0,0.0,0.0,-0.1149609375,-0.713715820313,8.95737304688,0.0,0.0,0.0,0.0,0.0,0.0,0.0,0.0,0.0
1509030499304618829,22017,1509030499304445184,crazyflie/base_link,0.0,0.0,0.0,0.0,-1.0,0.0,0.0,0.0,0.0,0.0,0.0,0.0,0.0,-0.0617853372898,-0.0820253615744,0.122505410144,0.0,0.0,0.0,0.0,0.0,0.0,0.0,0.0,0.0,-0.107775878906,-0.730480957031,8.94300292969,0.0,0.0,0.0,0.0,0.0,0.0,0.0,0.0,0.0
1509030499307021905,22018,1509030499306879337,crazyflie/base_link,0.0,0.0,0.0,0.0,-1.0,0.0,0.0,0.0,0.0,0.0,0.0,0.0,0.0,-0.116113823527,-0.0564590151097,0.0511326929295,0.0,0.0,0.0,0.0,0.0,0.0,0.0,0.0,0.0,-0.05748046875,-0.696950683594,8.97413818359,0.0,0.0,0.0,0.0,0.0,0.0,0.0,0.0,0.0
1509030499315722364,22019,1509030499315271890,crazyflie/base_link,0.0,0.0,0.0,0.0,-1.0,0.0,0.0,0.0,0.0,0.0,0.0,0.0,0.0,-0.0980043281149,0.0213052887206,-0.0383495196971,0.0,0.0,0.0,0.0,0.0,0.0,0.0,0.0,0.0,-0.009580078125,-0.649050292969,9.02682861328,0.0,0.0,0.0,0.0,0.0,0.0,0.0,0.0,0.0
1509030499326927127,22020,1509030499326792612,crazyflie/base_link,0.0,0.0,0.0,0.0,-1.0,0.0,0.0,0.0,0.0,0.0,0.0,0.0,0.0,-0.0511326929295,0.100134856987,-0.111852765783,0.0,0.0,0.0,0.0,0.0,0.0,0.0,0.0,0.0,0.0215551757813,-0.586779785156,9.07233398437,0.0,0.0,0.0,0.0,0.0,0.0,0.0,0.0,0.0
1509030499334866229,22021,1509030499334689505,crazyflie/base_link,0.0,0.0,0.0,0.0,-1.0,0.0,0.0,0.0,0.0,0.0,0.0,0.0,0.0,-0.0159789665405,0.13954964112,-0.129962261196,0.0,0.0,0.0,0.0,0.0,0.0,0.0,0.0,0.0,0.0455053710938,-0.526904296875,9.10107421875,0.0,0.0,0.0,0.0,0.0,0.0,0.0,0.0,0.0
1509030499345603050,22022,1509030499345346976,crazyflie/base_link,0.0,0.0,0.0,0.0,-1.0,0.0,0.0,0.0,0.0,0.0,0.0,0.0,0.0,0.0127831732324,0.136353847812,-0.0798948327024,0.0,0.0,0.0,0.0,0.0,0.0,0.0,0.0,0.0,0.0934057617188,-0.471818847656,9.10825927734,0.0,0.0,0.0,0.0,0.0,0.0,0.0,0.0,0.0
1509030499356888499,22023,1509030499356751550,crazyflie/base_link,0.0,0.0,0.0,0.0,-1.0,0.0,0.0,0.0,0.0,0.0,0.0,0.0,0.0,0.0255663464648,0.0617853372898,0.0159789665405,0.0,0.0,0.0,0.0,0.0,0.0,0.0,0.0,0.0,0.122145996094,-0.452658691406,9.10825927734,0.0,0.0,0.0,0.0,0.0,0.0,0.0,0.0,0.0
1509030499365887679,22024,1509030499365701983,crazyflie/base_link,0.0,0.0,0.0,0.0,-1.0,0.0,0.0,0.0,0.0,0.0,0.0,0.0,0.0,-0.00426105774413,-0.0415453130052,0.0958737992429,0.0,0.0,0.0,0.0,0.0,0.0,0.0,0.0,0.0,0.0981958007813,-0.457448730469,9.07951904297,0.0,0.0,0.0,0.0,0.0,0.0,0.0,0.0,0.0
1509030499375679230,22025,1509030499375562109,crazyflie/base_link,0.0,0.0,0.0,0.0,-1.0,0.0,0.0,0.0,0.0,0.0,0.0,0.0,0.0,-0.0713727172141,-0.124635939016,0.121440145708,0.0,0.0,0.0,0.0,0.0,0.0,0.0,0.0,0.0,0.0910107421875,-0.471818847656,9.06514892578,0.0,0.0,0.0,0.0,0.0,0.0,0.0,0.0,0.0
1509030499386350528,22026,1509030499386148439,crazyflie/base_link,0.0,0.0,0.0,0.0,-1.0,0.0,0.0,0.0,0.0,0.0,0.0,0.0,0.0,-0.120374881272,-0.145941227736,0.0511326929295,0.0,0.0,0.0,0.0,0.0,0.0,0.0,0.0,0.0,0.102985839844,-0.457448730469,9.10586425781,0.0,0.0,0.0,0.0,0.0,0.0,0.0,0.0,0.0
1509030499395939427,22027,1509030499395752527,crazyflie/base_link,0.0,0.0,0.0,0.0,-1.0,0.0,0.0,0.0,0.0,0.0,0.0,0.0,0.0,-0.13954964112,-0.120374881272,-0.0415453130052,0.0,0.0,0.0,0.0,0.0,0.0,0.0,0.0,0.0,0.122145996094,-0.431103515625,9.16813476563,0.0,0.0,0.0,0.0,0.0,0.0,0.0,0.0,0.0
1509030499406658196,22028,1509030499406481315,crazyflie/base_link,0.0,0.0,0.0,0.0,-1.0,0.0,0.0,0.0,0.0,0.0,0.0,0.0,0.0,-0.12357067458,-0.0841558904465,-0.0830906260105,0.0,0.0,0.0,0.0,0.0,0.0,0.0,0.0,0.0,0.136516113281,-0.352067871094,9.25435546875,0.0,0.0,0.0,0.0,0.0,0.0,0.0,0.0,0.0
1509030499415157797,22029,1509030499414946460,crazyflie/base_link,0.0,0.0,0.0,0.0,-1.0,0.0,0.0,0.0,0.0,0.0,0.0,0.0,0.0,-0.0766990393943,-0.0703074527781,-0.0628506017259,0.0,0.0,0.0,0.0,0.0,0.0,0.0,0.0,0.0,0.160466308594,-0.227526855469,9.33818115234,0.0,0.0,0.0,0.0,0.0,0.0,0.0,0.0,0.0
1509030499429112166,22030,1509030499428906565,crazyflie/base_link,0.0,0.0,0.0,0.0,-1.0,0.0,0.0,0.0,0.0,0.0,0.0,0.0,0.0,-0.0213052887206,-0.0884169481906,0.0127831732324,0.0,0.0,0.0,0.0,0.0,0.0,0.0,0.0,0.0,0.174836425781,-0.13412109375,9.40284667969,0.0,0.0,0.0,0.0,0.0,0.0,0.0,0.0,0.0
1509030499435192360,22031,1509030499434990601,crazyflie/base_link,0.0,0.0,0.0,0.0,-1.0,0.0,0.0,0.0,0.0,0.0,0.0,0.0,0.0,0.0191747598486,-0.121440145708,0.0980043281149,0.0,0.0,0.0,0.0,0.0,0.0,0.0,0.0,0.0,0.148491210938,-0.0981958007813,9.45553710938,0.0,0.0,0.0,0.0,0.0,0.0,0.0,0.0,0.0
1509030499444214002,22032,1509030499444024204,crazyflie/base_link,0.0,0.0,0.0,0.0,-1.0,0.0,0.0,0.0,0.0,0.0,0.0,0.0,0.0,0.0234358175927,-0.154463343225,0.152332814353,0.0,0.0,0.0,0.0,0.0,0.0,0.0,0.0,0.0,0.0886157226563,-0.119750976562,9.49625244141,0.0,0.0,0.0,0.0,0.0,0.0,0.0,0.0,0.0
1509030499455705281,22033,1509030499455567696,crazyflie/base_link,0.0,0.0,0.0,0.0,-1.0,0.0,0.0,0.0,0.0,0.0,0.0,0.0,0.0,0.0138484376684,-0.141680169992,0.159789665405,0.0,0.0,0.0,0.0,0.0,0.0,0.0,0.0,0.0,0.0215551757813,-0.179626464844,9.53936279297,0.0,0.0,0.0,0.0,0.0,0.0,0.0,0.0,0.0
1509030499466241507,22034,1509030499466070212,crazyflie/base_link,0.0,0.0,0.0,0.0,-1.0,0.0,0.0,0.0,0.0,0.0,0.0,0.0,0.0,0.0106526443603,-0.0894822126267,0.119309616836,0.0,0.0,0.0,0.0,0.0,0.0,0.0,0.0,0.0,-0.0263452148438,-0.253872070313,9.54654785156,0.0,0.0,0.0,0.0,0.0,0.0,0.0,0.0,0.0
1509030499475906869,22035,1509030499475732433,crazyflie/base_link,0.0,0.0,0.0,0.0,-1.0,0.0,0.0,0.0,0.0,0.0,0.0,0.0,0.0,0.0106526443603,-0.0117179087963,0.0649811305979,0.0,0.0,0.0,0.0,0.0,0.0,0.0,0.0,0.0,-0.05748046875,-0.335302734375,9.51541259766,0.0,0.0,0.0,0.0,0.0,0.0,0.0,0.0,0.0
1509030499484847999,22036,1509030499484686419,crazyflie/base_link,0.0,0.0,0.0,0.0,-1.0,0.0,0.0,0.0,0.0,0.0,0.0,0.0,0.0,0.00852211548825,0.0372842552611,0.0276968753368,0.0,0.0,0.0,0.0,0.0,0.0,0.0,0.0,0.0,-0.0646655273438,-0.395178222656,9.48188232422,0.0,0.0,0.0,0.0,0.0,0.0,0.0,0.0,0.0
1509030499496244905,22037,1509030499496100485,crazyflie/base_link,0.0,0.0,0.0,0.0,-1.0,0.0,0.0,0.0,0.0,0.0,0.0,0.0,0.0,0.00426105774413,0.033023197517,0.00532632218016,0.0,0.0,0.0,0.0,0.0,0.0,0.0,0.0,0.0,-0.0431103515625,-0.399968261719,9.48188232422,0.0,0.0,0.0,0.0,0.0,0.0,0.0,0.0,0.0
1509030499505104957,22038,1509030499504888932,crazyflie/base_link,0.0,0.0,0.0,0.0,-1.0,0.0,0.0,0.0,0.0,0.0,0.0,0.0,0.0,-0.00958737992429,-0.0159789665405,0.0106526443603,0.0,0.0,0.0,0.0,0.0,0.0,0.0,0.0,0.0,-0.01916015625,-0.373623046875,9.47948730469,0.0,0.0,0.0,0.0,0.0,0.0,0.0,0.0,0.0
1509030499517060174,22039,1509030499516858154,crazyflie/base_link,0.0,0.0,0.0,0.0,-1.0,0.0,0.0,0.0,0.0,0.0,0.0,0.0,0.0,-0.0213052887206,-0.0564590151097,0.0628506017259,0.0,0.0,0.0,0.0,0.0,0.0,0.0,0.0,0.0,0.0119750976563,-0.378413085938,9.47709228516,0.0,0.0,0.0,0.0,0.0,0.0,0.0,0.0,0.0
1509030499525895312,22040,1509030499525722160,crazyflie/base_link,0.0,0.0,0.0,0.0,-1.0,0.0,0.0,0.0,0.0,0.0,0.0,0.0,0.0,-0.00213052887206,-0.0905474770627,0.133158054504,0.0,0.0,0.0,0.0,0.0,0.0,0.0,0.0,0.0,0.0263452148438,-0.392783203125,9.46272216797,0.0,0.0,0.0,0.0,0.0,0.0,0.0,0.0,0.0
1509030499535422972,22041,1509030499535286549,crazyflie/base_link,0.0,0.0,0.0,0.0,-1.0,0.0,0.0,0.0,0.0,0.0,0.0,0.0,0.0,0.00639158661619,-0.101200121423,0.169377045329,0.0,0.0,0.0,0.0,0.0,0.0,0.0,0.0,0.0,0.0215551757813,-0.399968261719,9.46272216797,0.0,0.0,0.0,0.0,0.0,0.0,0.0,0.0,0.0
1509030499555949768,22042,1509030499555679079,crazyflie/base_link,0.0,0.0,0.0,0.0,-1.0,0.0,0.0,0.0,0.0,0.0,0.0,0.0,0.0,-0.0031957933081,-0.0894822126267,0.147006492172,0.0,0.0,0.0,0.0,0.0,0.0,0.0,0.0,0.0,0.0311352539063,-0.397573242188,9.46990722656,0.0,0.0,0.0,0.0,0.0,0.0,0.0,0.0,0.0
1509030499558192083,22043,1509030499558057439,crazyflie/base_link,0.0,0.0,0.0,0.0,-1.0,0.0,0.0,0.0,0.0,0.0,0.0,0.0,0.0,-0.0181094954125,-0.0798948327024,0.0692421883421,0.0,0.0,0.0,0.0,0.0,0.0,0.0,0.0,0.0,0.0215551757813,-0.342487792969,9.49146240234,0.0,0.0,0.0,0.0,0.0,0.0,0.0,0.0,0.0
1509030499564671081,22044,1509030499564521437,crazyflie/base_link,0.0,0.0,0.0,0.0,-1.0,0.0,0.0,0.0,0.0,0.0,0.0,0.0,0.0,-0.034088461953,-0.068176923906,-0.00426105774413,0.0,0.0,0.0,0.0,0.0,0.0,0.0,0.0,0.0,0.00239501953125,-0.273032226563,9.51780761719,0.0,0.0,0.0,0.0,0.0,0.0,0.0,0.0,0.0
1509030499574318870,22045,1509030499574174897,crazyflie/base_link,0.0,0.0,0.0,0.0,-1.0,0.0,0.0,0.0,0.0,0.0,0.0,0.0,0.0,-0.031957933081,-0.0553937506736,-0.0127831732324,0.0,0.0,0.0,0.0,0.0,0.0,0.0,0.0,0.0,-0.0143701171875,-0.215551757813,9.52738769531,0.0,0.0,0.0,0.0,0.0,0.0,0.0,0.0,0.0
1509030499584875048,22046,1509030499584719684,crazyflie/base_link,0.0,0.0,0.0,0.0,-1.0,0.0,0.0,0.0,0.0,0.0,0.0,0.0,0.0,-0.0138484376684,-0.0426105774413,0.031957933081,0.0,0.0,0.0,0.0,0.0,0.0,0.0,0.0,0.0,0.0,-0.155676269531,9.52499267578,0.0,0.0,0.0,0.0,0.0,0.0,0.0,0.0,0.0
1509030499594584371,22047,1509030499594392432,crazyflie/base_link,0.0,0.0,0.0,0.0,-1.0,0.0,0.0,0.0,0.0,0.0,0.0,0.0,0.0,-0.00532632218016,-0.0490021640575,0.0777643038303,0.0,0.0,0.0,0.0,0.0,0.0,0.0,0.0,0.0,0.0311352539063,-0.09580078125,9.53457275391,0.0,0.0,0.0,0.0,0.0,0.0,0.0,0.0,0.0
1509030499604237354,22048,1509030499604090224,crazyflie/base_link,0.0,0.0,0.0,0.0,-1.0,0.0,0.0,0.0,0.0,0.0,0.0,0.0,0.0,0.00639158661619,-0.0703074527781,0.113983294655,0.0,0.0,0.0,0.0,0.0,0.0,0.0,0.0,0.0,0.0694555664063,-0.0335302734375,9.56570800781,0.0,0.0,0.0,0.0,0.0,0.0,0.0,0.0,0.0
1509030499614495939,22049,1509030499614269173,crazyflie/base_link,0.0,0.0,0.0,0.0,-1.0,0.0,0.0,0.0,0.0,0.0,0.0,0.0,0.0,0.00426105774413,-0.105461179167,0.129962261196,0.0,0.0,0.0,0.0,0.0,0.0,0.0,0.0,0.0,0.0622705078125,0.01916015625,9.59444824219,0.0,0.0,0.0,0.0,0.0,0.0,0.0,0.0,0.0
1509030499624417741,22050,1509030499624211906,crazyflie/base_link,0.0,0.0,0.0,0.0,-1.0,0.0,0.0,0.0,0.0,0.0,0.0,0.0,0.0,-0.00106526443603,-0.106526443603,0.155528607661,0.0,0.0,0.0,0.0,0.0,0.0,0.0,0.0,0.0,0.009580078125,0.01916015625,9.61121337891,0.0,0.0,0.0,0.0,0.0,0.0,0.0,0.0,0.0
1509030499635868612,22051,1509030499635658909,crazyflie/base_link,0.0,0.0,0.0,0.0,-1.0,0.0,0.0,0.0,0.0,0.0,0.0,0.0,0.0,0.0127831732324,-0.0617853372898,0.159789665405,0.0,0.0,0.0,0.0,0.0,0.0,0.0,0.0,0.0,-0.0167651367188,0.0167651367188,9.63276855469,0.0,0.0,0.0,0.0,0.0,0.0,0.0,0.0,0.0
1509030499644769283,22052,1509030499644577660,crazyflie/base_link,0.0,0.0,0.0,0.0,-1.0,0.0,0.0,0.0,0.0,0.0,0.0,0.0,0.0,0.0639158661619,0.035153726389,0.122505410144,0.0,0.0,0.0,0.0,0.0,0.0,0.0,0.0,0.0,0.00239501953125,-0.0215551757813,9.66869384766,0.0,0.0,0.0,0.0,0.0,0.0,0.0,0.0,0.0
1509030499654338594,22053,1509030499654155480,crazyflie/base_link,0.0,0.0,0.0,0.0,-1.0,0.0,0.0,0.0,0.0,0.0,0.0,0.0,0.0,0.13422331894,0.143810698864,0.0916127414987,0.0,0.0,0.0,0.0,0.0,0.0,0.0,0.0,0.0,0.0359252929688,-0.102985839844,9.64234863281,0.0,0.0,0.0,0.0,0.0,0.0,0.0,0.0,0.0
1509030499664904904,22054,1509030499664666594,crazyflie/base_link,0.0,0.0,0.0,0.0,-1.0,0.0,0.0,0.0,0.0,0.0,0.0,0.0,0.0,0.153398078789,0.249271878031,0.0798948327024,0.0,0.0,0.0,0.0,0.0,0.0,0.0,0.0,0.0,0.119750976562,-0.1916015625,9.53936279297,0.0,0.0,0.0,0.0,0.0,0.0,0.0,0.0,0.0
1509030499674539588,22055,1509030499674248649,crazyflie/base_link,0.0,0.0,0.0,0.0,-1.0,0.0,0.0,0.0,0.0,0.0,0.0,0.0,0.0,0.169377045329,0.286556133293,0.0649811305979,0.0,0.0,0.0,0.0,0.0,0.0,0.0,0.0,0.0,0.275427246094,-0.265847167969,9.38129150391,0.0,0.0,0.0,0.0,0.0,0.0,0.0,0.0,0.0
1509030499690310088,22056,1509030499690030117,crazyflie/base_link,0.0,0.0,0.0,0.0,-1.0,0.0,0.0,0.0,0.0,0.0,0.0,0.0,0.0,0.159789665405,0.213052887206,0.0404800485692,0.0,0.0,0.0,0.0,0.0,0.0,0.0,0.0,0.0,0.423918457031,-0.261057128906,9.24477539062,0.0,0.0,0.0,0.0,0.0,0.0,0.0,0.0,0.0
1509030499696276464,22057,1509030499696097408,crazyflie/base_link,0.0,0.0,0.0,0.0,-1.0,0.0,0.0,0.0,0.0,0.0,0.0,0.0,0.0,0.0916127414987,0.0607200728538,0.00532632218016,0.0,0.0,0.0,0.0,0.0,0.0,0.0,0.0,0.0,0.474213867188,-0.229921875,9.17531982422,0.0,0.0,0.0,0.0,0.0,0.0,0.0,0.0,0.0
1509030499704551619,22058,1509030499704247574,crazyflie/base_link,0.0,0.0,0.0,0.0,-1.0,0.0,0.0,0.0,0.0,0.0,0.0,0.0,0.0,0.0308926686449,-0.109722236911,0.0490021640575,0.0,0.0,0.0,0.0,0.0,0.0,0.0,0.0,0.0,0.4215234375,-0.201181640625,9.14657958984,0.0,0.0,0.0,0.0,0.0,0.0,0.0,0.0,0.0
1509030499714774425,22059,1509030499714603995,crazyflie/base_link,0.0,0.0,0.0,0.0,-1.0,0.0,0.0,0.0,0.0,0.0,0.0,0.0,0.0,0.00532632218016,-0.19068233405,0.143810698864,0.0,0.0,0.0,0.0,0.0,0.0,0.0,0.0,0.0,0.356857910156,-0.177231445313,9.15376464844,0.0,0.0,0.0,0.0,0.0,0.0,0.0,0.0,0.0
1509030499724601525,22060,1509030499724424857,crazyflie/base_link,0.0,0.0,0.0,0.0,-1.0,0.0,0.0,0.0,0.0,0.0,0.0,0.0,0.0,0.0745685105222,-0.166181252021,0.25246767134,0.0,0.0,0.0,0.0,0.0,0.0,0.0,0.0,0.0,0.311352539062,-0.220341796875,9.16094970703,0.0,0.0,0.0,0.0,0.0,0.0,0.0,0.0,0.0
1509030499734282790,22061,1509030499734039964,crazyflie/base_link,0.0,0.0,0.0,0.0,-1.0,0.0,0.0,0.0,0.0,0.0,0.0,0.0,0.0,0.120374881272,-0.0500674284935,0.27909928224,0.0,0.0,0.0,0.0,0.0,0.0,0.0,0.0,0.0,0.323327636719,-0.208366699219,9.18250488281,0.0,0.0,0.0,0.0,0.0,0.0,0.0,0.0,0.0
1509030499745663317,22062,1509030499745482631,crazyflie/base_link,0.0,0.0,0.0,0.0,-1.0,0.0,0.0,0.0,0.0,0.0,0.0,0.0,0.0,0.158724400969,0.0575242795457,0.210922358334,0.0,0.0,0.0,0.0,0.0,0.0,0.0,0.0,0.0,0.383203125,-0.182021484375,9.18250488281,0.0,0.0,0.0,0.0,0.0,0.0,0.0,0.0,0.0
1509030499755216236,22063,1509030499755101596,crazyflie/base_link,0.0,0.0,0.0,0.0,-1.0,0.0,0.0,0.0,0.0,0.0,0.0,0.0,0.0,0.171507574201,0.103330650295,0.119309616836,0.0,0.0,0.0,0.0,0.0,0.0,0.0,0.0,0.0,0.457448730469,-0.158071289063,9.14418457031,0.0,0.0,0.0,0.0,0.0,0.0,0.0,0.0,0.0
1509030499764072156,22064,1509030499763921521,crazyflie/base_link,0.0,0.0,0.0,0.0,-1.0,0.0,0.0,0.0,0.0,0.0,0.0,0.0,0.0,0.132092790068,0.0703074527781,0.0617853372898,0.0,0.0,0.0,0.0,0.0,0.0,0.0,0.0,0.0,0.486188964844,-0.141306152344,9.07233398437,0.0,0.0,0.0,0.0,0.0,0.0,0.0,0.0,0.0
1509030499773861955,22065,1509030499773710012,crazyflie/base_link,0.0,0.0,0.0,0.0,-1.0,0.0,0.0,0.0,0.0,0.0,0.0,0.0,0.0,0.0745685105222,-0.00426105774413,0.068176923906,0.0,0.0,0.0,0.0,0.0,0.0,0.0,0.0,0.0,0.481398925781,-0.143701171875,9.00766845703,0.0,0.0,0.0,0.0,0.0,0.0,0.0,0.0,0.0
1509030499784240293,22066,1509030499784071301,crazyflie/base_link,0.0,0.0,0.0,0.0,-1.0,0.0,0.0,0.0,0.0,0.0,0.0,0.0,0.0,0.0191747598486,-0.068176923906,0.0809600971384,0.0,0.0,0.0,0.0,0.0,0.0,0.0,0.0,0.0,0.488583984375,-0.112565917969,8.98132324219,0.0,0.0,0.0,0.0,0.0,0.0,0.0,0.0,0.0
1509030499793803671,22067,1509030499793665450,crazyflie/base_link,0.0,0.0,0.0,0.0,-1.0,0.0,0.0,0.0,0.0,0.0,0.0,0.0,0.0,0.00639158661619,-0.0692421883421,0.0756337749583,0.0,0.0,0.0,0.0,0.0,0.0,0.0,0.0,0.0,0.512534179688,-0.0886157226563,8.96455810547,0.0,0.0,0.0,0.0,0.0,0.0,0.0,0.0,0.0
1509030499804612112,22068,1509030499804400363,crazyflie/base_link,0.0,0.0,0.0,0.0,-1.0,0.0,0.0,0.0,0.0,0.0,0.0,0.0,0.0,0.0308926686449,-0.0521979573656,0.0383495196971,0.0,0.0,0.0,0.0,0.0,0.0,0.0,0.0,0.0,0.548459472656,-0.05748046875,8.96216308594,0.0,0.0,0.0,0.0,0.0,0.0,0.0,0.0,0.0
1509030499819411688,22069,1509030499819141686,crazyflie/base_link,0.0,0.0,0.0,0.0,-1.0,0.0,0.0,0.0,0.0,0.0,0.0,0.0,0.0,0.066046395034,-0.0170442309765,-0.0181094954125,0.0,0.0,0.0,0.0,0.0,0.0,0.0,0.0,0.0,0.577199707031,-0.0407153320313,8.98850830078,0.0,0.0,0.0,0.0,0.0,0.0,0.0,0.0,0.0
1509030499824752366,22070,1509030499824453378,crazyflie/base_link,0.0,0.0,0.0,0.0,-1.0,0.0,0.0,0.0,0.0,0.0,0.0,0.0,0.0,0.0884169481906,-0.0383495196971,-0.00958737992429,0.0,0.0,0.0,0.0,0.0,0.0,0.0,0.0,0.0,0.524509277344,-0.0455053710938,8.98850830078,0.0,0.0,0.0,0.0,0.0,0.0,0.0,0.0,0.0
1509030499834448569,22071,1509030499834154287,crazyflie/base_link,0.0,0.0,0.0,0.0,-1.0,0.0,0.0,0.0,0.0,0.0,0.0,0.0,0.0,0.0756337749583,-0.0905474770627,0.104395914731,0.0,0.0,0.0,0.0,0.0,0.0,0.0,0.0,0.0,0.411943359375,-0.0742456054688,8.97174316406,0.0,0.0,0.0,0.0,0.0,0.0,0.0,0.0,0.0
1509030499845187129,22072,1509030499844893620,crazyflie/base_link,0.0,0.0,0.0,0.0,-1.0,0.0,0.0,0.0,0.0,0.0,0.0,0.0,0.0,0.0649811305979,-0.161920194277,0.269511902316,0.0,0.0,0.0,0.0,0.0,0.0,0.0,0.0,0.0,0.292192382813,-0.0694555664063,8.98850830078,0.0,0.0,0.0,0.0,0.0,0.0,0.0,0.0,0.0
1509030499854822795,22073,1509030499854669263,crazyflie/base_link,0.0,0.0,0.0,0.0,-1.0,0.0,0.0,0.0,0.0,0.0,0.0,0.0,0.0,0.0521979573656,-0.192812862922,0.39734363464,0.0,0.0,0.0,0.0,0.0,0.0,0.0,0.0,0.0,0.244291992188,-0.00718505859375,9.05796386719,0.0,0.0,0.0,0.0,0.0,0.0,0.0,0.0,0.0
1509030499863752169,22074,1509030499863473136,crazyflie/base_link,0.0,0.0,0.0,0.0,-1.0,0.0,0.0,0.0,0.0,0.0,0.0,0.0,0.0,0.0926780059348,-0.197073920666,0.496413227191,0.0,0.0,0.0,0.0,0.0,0.0,0.0,0.0,0.0,0.256267089844,-0.067060546875,9.11783935547,0.0,0.0,0.0,0.0,0.0,0.0,0.0,0.0,0.0
1509030499873490138,22075,1509030499873205152,crazyflie/base_link,0.0,0.0,0.0,0.0,-1.0,0.0,0.0,0.0,0.0,0.0,0.0,0.0,0.0,0.147006492172,-0.197073920666,0.534762746888,0.0,0.0,0.0,0.0,0.0,0.0,0.0,0.0,0.0,0.261057128906,-0.117355957031,9.13699951172,0.0,0.0,0.0,0.0,0.0,0.0,0.0,0.0,0.0
1509030499884517871,22076,1509030499883995609,crazyflie/base_link,0.0,0.0,0.0,0.0,-1.0,0.0,0.0,0.0,0.0,0.0,0.0,0.0,0.0,0.0958737992429,-0.161920194277,0.537958540196,0.0,0.0,0.0,0.0,0.0,0.0,0.0,0.0,0.0,0.170046386719,-0.186811523438,9.12981445313,0.0,0.0,0.0,0.0,0.0,0.0,0.0,0.0,0.0
1509030499893899098,22077,1509030499893666053,crazyflie/base_link,0.0,0.0,0.0,0.0,-1.0,0.0,0.0,0.0,0.0,0.0,0.0,0.0,0.0,0.0809600971384,-0.151267549917,0.353667792763,0.0,0.0,0.0,0.0,0.0,0.0,0.0,0.0,0.0,0.0838256835938,-0.222736816406,9.14418457031,0.0,0.0,0.0,0.0,0.0,0.0,0.0,0.0,0.0
1509030499904529768,22078,1509030499904356038,crazyflie/base_link,0.0,0.0,0.0,0.0,-1.0,0.0,0.0,0.0,0.0,0.0,0.0,0.0,0.0,0.0362189908251,-0.0820253615744,0.122505410144,0.0,0.0,0.0,0.0,0.0,0.0,0.0,0.0,0.0,0.0814306640625,-0.256267089844,9.18968994141,0.0,0.0,0.0,0.0,0.0,0.0,0.0,0.0,0.0
1509030499913050282,22079,1509030499912865853,crazyflie/base_link,0.0,0.0,0.0,0.0,-1.0,0.0,0.0,0.0,0.0,0.0,0.0,0.0,0.0,0.0170442309765,-0.0149137021044,-0.033023197517,0.0,0.0,0.0,0.0,0.0,0.0,0.0,0.0,0.0,0.0359252929688,-0.263452148438,9.20406005859,0.0,0.0,0.0,0.0,0.0,0.0,0.0,0.0,0.0
1509030499923787644,22080,1509030499923568971,crazyflie/base_link,0.0,0.0,0.0,0.0,-1.0,0.0,0.0,0.0,0.0,0.0,0.0,0.0,0.0,0.0532632218016,0.0394147841332,-0.0276968753368,0.0,0.0,0.0,0.0,0.0,0.0,0.0,0.0,0.0,-0.0359252929688,-0.292192382813,9.19208496094,0.0,0.0,0.0,0.0,0.0,0.0,0.0,0.0,0.0
1509030499942377354,22081,1509030499942176145,crazyflie/base_link,0.0,0.0,0.0,0.0,-1.0,0.0,0.0,0.0,0.0,0.0,0.0,0.0,0.0,0.0830906260105,0.0308926686449,0.0937432703708,0.0,0.0,0.0,0.0,0.0,0.0,0.0,0.0,0.0,-0.0981958007813,-0.313747558594,9.17292480469,0.0,0.0,0.0,0.0,0.0,0.0,0.0,0.0,0.0
1509030499945612070,22082,1509030499945337420,crazyflie/base_link,0.0,0.0,0.0,0.0,-1.0,0.0,0.0,0.0,0.0,0.0,0.0,0.0,0.0,0.116113823527,-0.0031957933081,0.236488704799,0.0,0.0,0.0,0.0,0.0,0.0,0.0,0.0,0.0,-0.143701171875,-0.337697753906,9.13939453125,0.0,0.0,0.0,0.0,0.0,0.0,0.0,0.0,0.0
1509030499953386754,22083,1509030499953211582,crazyflie/base_link,0.0,0.0,0.0,0.0,-1.0,0.0,0.0,0.0,0.0,0.0,0.0,0.0,0.0,0.108656972475,-0.0820253615744,0.348341470582,0.0,0.0,0.0,0.0,0.0,0.0,0.0,0.0,0.0,-0.189206542969,-0.366437988281,9.07712402344,0.0,0.0,0.0,0.0,0.0,0.0,0.0,0.0,0.0
1509030499964184746,22084,1509030499963972068,crazyflie/base_link,0.0,0.0,0.0,0.0,-1.0,0.0,0.0,0.0,0.0,0.0,0.0,0.0,0.0,0.0479368996214,-0.117179087963,0.393082576896,0.0,0.0,0.0,0.0,0.0,0.0,0.0,0.0,0.0,-0.232316894531,-0.383203125,9.03880371094,0.0,0.0,0.0,0.0,0.0,0.0,0.0,0.0,0.0
1509030499973872415,22085,1509030499973645078,crazyflie/base_link,0.0,0.0,0.0,0.0,-1.0,0.0,0.0,0.0,0.0,0.0,0.0,0.0,0.0,-0.00958737992429,-0.121440145708,0.345145677274,0.0,0.0,0.0,0.0,0.0,0.0,0.0,0.0,0.0,-0.186811523438,-0.349672851562,9.07233398437,0.0,0.0,0.0,0.0,0.0,0.0,0.0,0.0,0.0
1509030499984474242,22086,1509030499984289659,crazyflie/base_link,0.0,0.0,0.0,0.0,-1.0,0.0,0.0,0.0,0.0,0.0,0.0,0.0,0.0,-0.0468716351854,-0.0490021640575,0.221575002695,0.0,0.0,0.0,0.0,0.0,0.0,0.0,0.0,0.0,-0.0502954101563,-0.265847167969,9.16573974609,0.0,0.0,0.0,0.0,0.0,0.0,0.0,0.0,0.0
1509030499994153878,22087,1509030499993981791,crazyflie/base_link,0.0,0.0,0.0,0.0,-1.0,0.0,0.0,0.0,0.0,0.0,0.0,0.0,0.0,-0.0223705531567,0.0308926686449,0.0862864193186,0.0,0.0,0.0,0.0,0.0,0.0,0.0,0.0,0.0,0.138911132813,-0.162861328125,9.29267578125,0.0,0.0,0.0,0.0,0.0,0.0,0.0,0.0,0.0
1509030500004863414,22088,1509030500004721035,crazyflie/base_link,0.0,0.0,0.0,0.0,-1.0,0.0,0.0,0.0,0.0,0.0,0.0,0.0,0.0,0.0276968753368,0.0852211548825,0.0394147841332,0.0,0.0,0.0,0.0,0.0,0.0,0.0,0.0,0.0,0.328117675781,-0.028740234375,9.41482177734,0.0,0.0,0.0,0.0,0.0,0.0,0.0,0.0,0.0
1509030500013306614,22089,1509030500013153091,crazyflie/base_link,0.0,0.0,0.0,0.0,-1.0,0.0,0.0,0.0,0.0,0.0,0.0,0.0,0.0,0.0873516837546,0.066046395034,0.115048559091,0.0,0.0,0.0,0.0,0.0,0.0,0.0,0.0,0.0,0.435893554688,0.0694555664063,9.50822753906,0.0,0.0,0.0,0.0,0.0,0.0,0.0,0.0,0.0
1509030500024143194,22090,1509030500023973838,crazyflie/base_link,0.0,0.0,0.0,0.0,-1.0,0.0,0.0,0.0,0.0,0.0,0.0,0.0,0.0,0.1182443524,0.0213052887206,0.28442560442,0.0,0.0,0.0,0.0,0.0,0.0,0.0,0.0,0.0,0.438288574219,0.0526904296875,9.50583251953,0.0,0.0,0.0,0.0,0.0,0.0,0.0,0.0,0.0
1509030500032077894,22091,1509030500031889016,crazyflie/base_link,0.0,0.0,0.0,0.0,-1.0,0.0,0.0,0.0,0.0,0.0,0.0,0.0,0.0,0.112918030219,-0.0362189908251,0.443150005389,0.0,0.0,0.0,0.0,0.0,0.0,0.0,0.0,0.0,0.368833007813,0.0,9.45314208984,0.0,0.0,0.0,0.0,0.0,0.0,0.0,0.0,0.0
1509030500044664889,22092,1509030500044412335,crazyflie/base_link,0.0,0.0,0.0,0.0,-1.0,0.0,0.0,0.0,0.0,0.0,0.0,0.0,0.0,0.068176923906,-0.0500674284935,0.468716351854,0.0,0.0,0.0,0.0,0.0,0.0,0.0,0.0,0.0,0.313747558594,-0.0622705078125,9.40045166016,0.0,0.0,0.0,0.0,0.0,0.0,0.0,0.0,0.0
1509030500054354261,22093,1509030500054142978,crazyflie/base_link,0.0,0.0,0.0,0.0,-1.0,0.0,0.0,0.0,0.0,0.0,0.0,0.0,0.0,0.0415453130052,-0.0426105774413,0.363255172687,0.0,0.0,0.0,0.0,0.0,0.0,0.0,0.0,0.0,0.28740234375,-0.0910107421875,9.36931640625,0.0,0.0,0.0,0.0,0.0,0.0,0.0,0.0,0.0
1509030500071436301,22094,1509030500071104517,crazyflie/base_link,0.0,0.0,0.0,0.0,-1.0,0.0,0.0,0.0,0.0,0.0,0.0,0.0,0.0,0.0191747598486,0.00532632218016,0.256728729084,0.0,0.0,0.0,0.0,0.0,0.0,0.0,0.0,0.0,0.246687011719,-0.126936035156,9.3118359375,0.0,0.0,0.0,0.0,0.0,0.0,0.0,0.0,0.0
1509030500073728911,22095,1509030500073507272,crazyflie/base_link,0.0,0.0,0.0,0.0,-1.0,0.0,0.0,0.0,0.0,0.0,0.0,0.0,0.0,0.00958737992429,0.034088461953,0.187486540742,0.0,0.0,0.0,0.0,0.0,0.0,0.0,0.0,0.0,0.215551757813,-0.136516113281,9.29507080078,0.0,0.0,0.0,0.0,0.0,0.0,0.0,0.0,0.0
1509030500084151210,22096,1509030500083905428,crazyflie/base_link,0.0,0.0,0.0,0.0,-1.0,0.0,0.0,0.0,0.0,0.0,0.0,0.0,0.0,0.035153726389,0.0553937506736,0.218379209386,0.0,0.0,0.0,0.0,0.0,0.0,0.0,0.0,0.0,0.234711914062,-0.129331054688,9.3118359375,0.0,0.0,0.0,0.0,0.0,0.0,0.0,0.0,0.0
1509030500093964342,22097,1509030500093681457,crazyflie/base_link,0.0,0.0,0.0,0.0,-1.0,0.0,0.0,0.0,0.0,0.0,0.0,0.0,0.0,0.0543284862376,0.0213052887206,0.337688826222,0.0,0.0,0.0,0.0,0.0,0.0,0.0,0.0,0.0,0.258662109375,-0.117355957031,9.35734130859,0.0,0.0,0.0,0.0,0.0,0.0,0.0,0.0,0.0
1509030500101827642,22098,1509030500101592900,crazyflie/base_link,0.0,0.0,0.0,0.0,-1.0,0.0,0.0,0.0,0.0,0.0,0.0,0.0,0.0,0.0692421883421,-0.0181094954125,0.470846880726,0.0,0.0,0.0,0.0,0.0,0.0,0.0,0.0,0.0,0.270637207031,-0.100590820313,9.41721679688,0.0,0.0,0.0,0.0,0.0,0.0,0.0,0.0,0.0
1509030500112966732,22099,1509030500112761803,crazyflie/base_link,0.0,0.0,0.0,0.0,-1.0,0.0,0.0,0.0,0.0,0.0,0.0,0.0,0.0,0.0713727172141,-0.0553937506736,0.53689327576,0.0,0.0,0.0,0.0,0.0,0.0,0.0,0.0,0.0,0.292192382813,-0.0431103515625,9.47709228516,0.0,0.0,0.0,0.0,0.0,0.0,0.0,0.0,0.0
1509030500122706047,22100,1509030500122582750,crazyflie/base_link,0.0,0.0,0.0,0.0,-1.0,0.0,0.0,0.0,0.0,0.0,0.0,0.0,0.0,0.066046395034,-0.0553937506736,0.53156695358,0.0,0.0,0.0,0.0,0.0,0.0,0.0,0.0,0.0,0.32572265625,0.0383203125,9.54415283203,0.0,0.0,0.0,0.0,0.0,0.0,0.0,0.0,0.0
1509030500132368187,22101,1509030500132222467,crazyflie/base_link,0.0,0.0,0.0,0.0,-1.0,0.0,0.0,0.0,0.0,0.0,0.0,0.0,0.0,0.0958737992429,-0.0127831732324,0.516653251475,0.0,0.0,0.0,0.0,0.0,0.0,0.0,0.0,0.0,0.3448828125,0.00718505859375,9.48906738281,0.0,0.0,0.0,0.0,0.0,0.0,0.0,0.0,0.0
1509030500142994837,22102,1509030500142848893,crazyflie/base_link,0.0,0.0,0.0,0.0,-1.0,0.0,0.0,0.0,0.0,0.0,0.0,0.0,0.0,0.0894822126267,0.0394147841332,0.395213105768,0.0,0.0,0.0,0.0,0.0,0.0,0.0,0.0,0.0,0.4215234375,0.0167651367188,9.43877197266,0.0,0.0,0.0,0.0,0.0,0.0,0.0,0.0,0.0
1509030500151930472,22103,1509030500151496973,crazyflie/base_link,0.0,0.0,0.0,0.0,-1.0,0.0,0.0,0.0,0.0,0.0,0.0,0.0,0.0,0.0894822126267,0.0735032460862,0.226901324875,0.0,0.0,0.0,0.0,0.0,0.0,0.0,0.0,0.0,0.581989746094,0.00718505859375,9.42440185547,0.0,0.0,0.0,0.0,0.0,0.0,0.0,0.0,0.0
1509030500163920797,22104,1509030500163732485,crazyflie/base_link,0.0,0.0,0.0,0.0,-1.0,0.0,0.0,0.0,0.0,0.0,0.0,0.0,0.0,0.0703074527781,0.0149137021044,0.117179087963,0.0,0.0,0.0,0.0,0.0,0.0,0.0,0.0,0.0,0.656235351563,0.0119750976563,9.42440185547,0.0,0.0,0.0,0.0,0.0,0.0,0.0,0.0,0.0
1509030500173453546,22105,1509030500173246053,crazyflie/base_link,0.0,0.0,0.0,0.0,-1.0,0.0,0.0,0.0,0.0,0.0,0.0,0.0,0.0,0.0031957933081,-0.0788295682663,0.153398078789,0.0,0.0,0.0,0.0,0.0,0.0,0.0,0.0,0.0,0.586779785156,0.0,9.43158691406,0.0,0.0,0.0,0.0,0.0,0.0,0.0,0.0,0.0
1509030500184179676,22106,1509030500183939446,crazyflie/base_link,0.0,0.0,0.0,0.0,-1.0,0.0,0.0,0.0,0.0,0.0,0.0,0.0,0.0,-0.112918030219,-0.166181252021,0.295078248781,0.0,0.0,0.0,0.0,0.0,0.0,0.0,0.0,0.0,0.450263671875,0.0646655273438,9.46990722656,0.0,0.0,0.0,0.0,0.0,0.0,0.0,0.0,0.0
1509030500191966015,22107,1509030500191751217,crazyflie/base_link,0.0,0.0,0.0,0.0,-1.0,0.0,0.0,0.0,0.0,0.0,0.0,0.0,0.0,-0.0703074527781,-0.156593872097,0.383495196971,0.0,0.0,0.0,0.0,0.0,0.0,0.0,0.0,0.0,0.359252929688,0.0886157226563,9.50583251953,0.0,0.0,0.0,0.0,0.0,0.0,0.0,0.0,0.0
1509030500206594440,22108,1509030500206377351,crazyflie/base_link,0.0,0.0,0.0,0.0,-1.0,0.0,0.0,0.0,0.0,0.0,0.0,0.0,0.0,0.0820253615744,-0.111852765783,0.420779452233,0.0,0.0,0.0,0.0,0.0,0.0,0.0,0.0,0.0,0.323327636719,0.0838256835938,9.54894287109,0.0,0.0,0.0,0.0,0.0,0.0,0.0,0.0,0.0
1509030500213269950,22109,1509030500213037285,crazyflie/base_link,0.0,0.0,0.0,0.0,-1.0,0.0,0.0,0.0,0.0,0.0,0.0,0.0,0.0,0.133158054504,-0.0170442309765,0.394147841332,0.0,0.0,0.0,0.0,0.0,0.0,0.0,0.0,0.0,0.256267089844,0.122145996094,9.57289306641,0.0,0.0,0.0,0.0,0.0,0.0,0.0,0.0,0.0
1509030500224074894,22110,1509030500223800340,crazyflie/base_link,0.0,0.0,0.0,0.0,-1.0,0.0,0.0,0.0,0.0,0.0,0.0,0.0,0.0,0.173638103073,0.00639158661619,0.362189908251,0.0,0.0,0.0,0.0,0.0,0.0,0.0,0.0,0.0,0.155676269531,0.0910107421875,9.55373291016,0.0,0.0,0.0,0.0,0.0,0.0,0.0,0.0,0.0
1509030500231915208,22111,1509030500231691385,crazyflie/base_link,0.0,0.0,0.0,0.0,-1.0,0.0,0.0,0.0,0.0,0.0,0.0,0.0,0.0,0.155528607661,0.0255663464648,0.380299403663,0.0,0.0,0.0,0.0,0.0,0.0,0.0,0.0,0.0,0.0814306640625,0.028740234375,9.49146240234,0.0,0.0,0.0,0.0,0.0,0.0,0.0,0.0,0.0
1509030500242613731,22112,1509030500242363721,crazyflie/base_link,0.0,0.0,0.0,0.0,-1.0,0.0,0.0,0.0,0.0,0.0,0.0,0.0,0.0,0.117179087963,0.0159789665405,0.409061543436,0.0,0.0,0.0,0.0,0.0,0.0,0.0,0.0,0.0,0.0814306640625,-0.00239501953125,9.44116699219,0.0,0.0,0.0,0.0,0.0,0.0,0.0,0.0,0.0
1509030500251311375,22113,1509030500250882932,crazyflie/base_link,0.0,0.0,0.0,0.0,-1.0,0.0,0.0,0.0,0.0,0.0,0.0,0.0,0.0,0.0969390636789,0.0245010820287,0.401604692384,0.0,0.0,0.0,0.0,0.0,0.0,0.0,0.0,0.0,0.170046386719,0.0215551757813,9.41242675781,0.0,0.0,0.0,0.0,0.0,0.0,0.0,0.0,0.0
1509030500263670657,22114,1509030500263408529,crazyflie/base_link,0.0,0.0,0.0,0.0,-1.0,0.0,0.0,0.0,0.0,0.0,0.0,0.0,0.0,0.0905474770627,0.0266316109008,0.337688826222,0.0,0.0,0.0,0.0,0.0,0.0,0.0,0.0,0.0,0.385598144531,0.067060546875,9.39087158203,0.0,0.0,0.0,0.0,0.0,0.0,0.0,0.0,0.0
1509030500273278509,22115,1509030500273043979,crazyflie/base_link,0.0,0.0,0.0,0.0,-1.0,0.0,0.0,0.0,0.0,0.0,0.0,0.0,0.0,0.103330650295,0.0149137021044,0.227966589311,0.0,0.0,0.0,0.0,0.0,0.0,0.0,0.0,0.0,0.627495117188,0.0981958007813,9.40284667969,0.0,0.0,0.0,0.0,0.0,0.0,0.0,0.0,0.0
1509030500281205036,22116,1509030500280953165,crazyflie/base_link,0.0,0.0,0.0,0.0,-1.0,0.0,0.0,0.0,0.0,0.0,0.0,0.0,0.0,0.0916127414987,-0.0479368996214,0.117179087963,0.0,0.0,0.0,0.0,0.0,0.0,0.0,0.0,0.0,0.720900878906,0.119750976562,9.42919189453,0.0,0.0,0.0,0.0,0.0,0.0,0.0,0.0,0.0
1509030500292014802,22117,1509030500291752377,crazyflie/base_link,0.0,0.0,0.0,0.0,-1.0,0.0,0.0,0.0,0.0,0.0,0.0,0.0,0.0,0.0170442309765,-0.107591708039,0.0884169481906,0.0,0.0,0.0,0.0,0.0,0.0,0.0,0.0,0.0,0.661025390625,0.122145996094,9.45793212891,0.0,0.0,0.0,0.0,0.0,0.0,0.0,0.0,0.0
1509030500301677502,22118,1509030500301493684,crazyflie/base_link,0.0,0.0,0.0,0.0,-1.0,0.0,0.0,0.0,0.0,0.0,0.0,0.0,0.0,-0.00958737992429,-0.127831732324,0.106526443603,0.0,0.0,0.0,0.0,0.0,0.0,0.0,0.0,0.0,0.529299316406,0.124541015625,9.48906738281,0.0,0.0,0.0,0.0,0.0,0.0,0.0,0.0,0.0
1509030500312987689,22119,1509030500312835008,crazyflie/base_link,0.0,0.0,0.0,0.0,-1.0,0.0,0.0,0.0,0.0,0.0,0.0,0.0,0.0,0.0298274042089,-0.066046395034,0.160854929841,0.0,0.0,0.0,0.0,0.0,0.0,0.0,0.0,0.0,0.4215234375,0.112565917969,9.49864746094,0.0,0.0,0.0,0.0,0.0,0.0,0.0,0.0,0.0
1509030500320790491,22120,1509030500320644520,crazyflie/base_link,0.0,0.0,0.0,0.0,-1.0,0.0,0.0,0.0,0.0,0.0,0.0,0.0,0.0,0.149137021044,0.0170442309765,0.235423440363,0.0,0.0,0.0,0.0,0.0,0.0,0.0,0.0,0.0,0.32572265625,0.100590820313,9.47709228516,0.0,0.0,0.0,0.0,0.0,0.0,0.0,0.0,0.0
1509030500339391864,22121,1509030500339231394,crazyflie/base_link,0.0,0.0,0.0,0.0,-1.0,0.0,0.0,0.0,0.0,0.0,0.0,0.0,0.0,0.260989786828,0.0703074527781,0.350471999454,0.0,0.0,0.0,0.0,0.0,0.0,0.0,0.0,0.0,0.217946777344,0.0694555664063,9.41242675781,0.0,0.0,0.0,0.0,0.0,0.0,0.0,0.0,0.0
1509030500341603043,22122,1509030500341275881,crazyflie/base_link,0.0,0.0,0.0,0.0,-1.0,0.0,0.0,0.0,0.0,0.0,0.0,0.0,0.0,0.317448801937,0.0426105774413,0.507065871551,0.0,0.0,0.0,0.0,0.0,0.0,0.0,0.0,0.0,0.102985839844,-0.0239501953125,9.29746582031,0.0,0.0,0.0,0.0,0.0,0.0,0.0,0.0,0.0
1509030500352038338,22123,1509030500351844330,crazyflie/base_link,0.0,0.0,0.0,0.0,-1.0,0.0,0.0,0.0,0.0,0.0,0.0,0.0,0.0,0.300404570961,-0.0458063707494,0.643419719363,0.0,0.0,0.0,0.0,0.0,0.0,0.0,0.0,0.0,0.0,-0.136516113281,9.16813476563,0.0,0.0,0.0,0.0,0.0,0.0,0.0,0.0,0.0
1509030500361946501,22124,1509030500361695817,crazyflie/base_link,0.0,0.0,0.0,0.0,-1.0,0.0,0.0,0.0,0.0,0.0,0.0,0.0,0.0,0.202400242846,-0.141680169992,0.68709556124,0.0,0.0,0.0,0.0,0.0,0.0,0.0,0.0,0.0,-0.0119750976563,-0.205971679688,9.10586425781,0.0,0.0,0.0,0.0,0.0,0.0,0.0,0.0,0.0
1509030500370575844,22125,1509030500370426001,crazyflie/base_link,0.0,0.0,0.0,0.0,-1.0,0.0,0.0,0.0,0.0,0.0,0.0,0.0,0.0,0.110787501347,-0.184290747433,0.615722844026,0.0,0.0,0.0,0.0,0.0,0.0,0.0,0.0,0.0,0.0718505859375,-0.3065625,9.06514892578,0.0,0.0,0.0,0.0,0.0,0.0,0.0,0.0,0.0
1509030500382049120,22126,1509030500381855466,crazyflie/base_link,0.0,0.0,0.0,0.0,-1.0,0.0,0.0,0.0,0.0,0.0,0.0,0.0,0.0,0.0415453130052,-0.165115987585,0.417583658924,0.0,0.0,0.0,0.0,0.0,0.0,0.0,0.0,0.0,0.186811523438,-0.299377441406,9.09149414063,0.0,0.0,0.0,0.0,0.0,0.0,0.0,0.0,0.0
1509030500390673120,22127,1509030500390480727,crazyflie/base_link,0.0,0.0,0.0,0.0,-1.0,0.0,0.0,0.0,0.0,0.0,0.0,0.0,0.0,0.00745685105222,-0.0884169481906,0.223705531567,0.0,0.0,0.0,0.0,0.0,0.0,0.0,0.0,0.0,0.335302734375,-0.253872070313,9.17052978516,0.0,0.0,0.0,0.0,0.0,0.0,0.0,0.0,0.0
1509030500402378471,22128,1509030500402183768,crazyflie/base_link,0.0,0.0,0.0,0.0,-1.0,0.0,0.0,0.0,0.0,0.0,0.0,0.0,0.0,0.0490021640575,-0.0298274042089,0.135288583376,0.0,0.0,0.0,0.0,0.0,0.0,0.0,0.0,0.0,0.376018066406,-0.184416503906,9.24956542969,0.0,0.0,0.0,0.0,0.0,0.0,0.0,0.0,0.0
1509030500411631326,22129,1509030500411406115,crazyflie/base_link,0.0,0.0,0.0,0.0,-1.0,0.0,0.0,0.0,0.0,0.0,0.0,0.0,0.0,0.0948085348068,0.0149137021044,0.189617069614,0.0,0.0,0.0,0.0,0.0,0.0,0.0,0.0,0.0,0.349672851562,-0.086220703125,9.30944091797,0.0,0.0,0.0,0.0,0.0,0.0,0.0,0.0,0.0
1509030500421437542,22130,1509030500421268814,crazyflie/base_link,0.0,0.0,0.0,0.0,-1.0,0.0,0.0,0.0,0.0,0.0,0.0,0.0,0.0,0.181094954125,0.0468716351854,0.311057215321,0.0,0.0,0.0,0.0,0.0,0.0,0.0,0.0,0.0,0.414338378906,-0.0383203125,9.33818115234,0.0,0.0,0.0,0.0,0.0,0.0,0.0,0.0,0.0
1509030500431694071,22131,1509030500431500874,crazyflie/base_link,0.0,0.0,0.0,0.0,-1.0,0.0,0.0,0.0,0.0,0.0,0.0,0.0,0.0,0.260989786828,0.0596548084178,0.396278370204,0.0,0.0,0.0,0.0,0.0,0.0,0.0,0.0,0.0,0.529299316406,-0.0622705078125,9.29507080078,0.0,0.0,0.0,0.0,0.0,0.0,0.0,0.0,0.0
1509030500441321040,22132,1509030500441106387,crazyflie/base_link,0.0,0.0,0.0,0.0,-1.0,0.0,0.0,0.0,0.0,0.0,0.0,0.0,0.0,0.287621397729,0.00426105774413,0.370712023739,0.0,0.0,0.0,0.0,0.0,0.0,0.0,0.0,0.0,0.570014648438,-0.0934057617188,9.22322021484,0.0,0.0,0.0,0.0,0.0,0.0,0.0,0.0,0.0
1509030500452067372,22133,1509030500451856980,crazyflie/base_link,0.0,0.0,0.0,0.0,-1.0,0.0,0.0,0.0,0.0,0.0,0.0,0.0,0.0,0.216248680514,-0.0926780059348,0.288686662165,0.0,0.0,0.0,0.0,0.0,0.0,0.0,0.0,0.0,0.560434570312,-0.105380859375,9.15376464844,0.0,0.0,0.0,0.0,0.0,0.0,0.0,0.0,0.0
1509030500468505193,22134,1509030500468342045,crazyflie/base_link,0.0,0.0,0.0,0.0,-1.0,0.0,0.0,0.0,0.0,0.0,0.0,0.0,0.0,0.135288583376,-0.209857093898,0.259924522392,0.0,0.0,0.0,0.0,0.0,0.0,0.0,0.0,0.0,0.512534179688,-0.141306152344,9.09149414063,0.0,0.0,0.0,0.0,0.0,0.0,0.0,0.0,0.0
1509030500470931227,22135,1509030500470734798,crazyflie/base_link,0.0,0.0,0.0,0.0,-1.0,0.0,0.0,0.0,0.0,0.0,0.0,0.0,0.0,0.0649811305979,-0.275903488932,0.347276206146,0.0,0.0,0.0,0.0,0.0,0.0,0.0,0.0,0.0,0.428708496094,-0.21076171875,9.04359375,0.0,0.0,0.0,0.0,0.0,0.0,0.0,0.0,0.0
1509030500482157296,22136,1509030500481999414,crazyflie/base_link,0.0,0.0,0.0,0.0,-1.0,0.0,0.0,0.0,0.0,0.0,0.0,0.0,0.0,0.00852211548825,-0.256728729084,0.508131135987,0.0,0.0,0.0,0.0,0.0,0.0,0.0,0.0,0.0,0.392783203125,-0.177231445313,9.05077880859,0.0,0.0,0.0,0.0,0.0,0.0,0.0,0.0,0.0
1509030500490776210,22137,1509030500490498346,crazyflie/base_link,0.0,0.0,0.0,0.0,-1.0,0.0,0.0,0.0,0.0,0.0,0.0,0.0,0.0,-0.00639158661619,-0.184290747433,0.560329093353,0.0,0.0,0.0,0.0,0.0,0.0,0.0,0.0,0.0,0.474213867188,-0.0814306640625,9.14178955078,0.0,0.0,0.0,0.0,0.0,0.0,0.0,0.0,0.0
1509030500502474236,22138,1509030500502256488,crazyflie/base_link,0.0,0.0,0.0,0.0,-1.0,0.0,0.0,0.0,0.0,0.0,0.0,0.0,0.0,0.031957933081,-0.0841558904465,0.507065871551,0.0,0.0,0.0,0.0,0.0,0.0,0.0,0.0,0.0,0.658630371094,0.01916015625,9.22322021484,0.0,0.0,0.0,0.0,0.0,0.0,0.0,0.0,0.0
1509030500511849469,22139,1509030500511636584,crazyflie/base_link,0.0,0.0,0.0,0.0,-1.0,0.0,0.0,0.0,0.0,0.0,0.0,0.0,0.0,0.0404800485692,-0.00426105774413,0.373907817047,0.0,0.0,0.0,0.0,0.0,0.0,0.0,0.0,0.0,0.878972167969,0.162861328125,9.30465087891,0.0,0.0,0.0,0.0,0.0,0.0,0.0,0.0,0.0
1509030500521456788,22140,1509030500521337665,crazyflie/base_link,0.0,0.0,0.0,0.0,-1.0,0.0,0.0,0.0,0.0,0.0,0.0,0.0,0.0,0.0415453130052,0.031957933081,0.20666130059,0.0,0.0,0.0,0.0,0.0,0.0,0.0,0.0,0.0,1.06817871094,0.258662109375,9.35973632813,0.0,0.0,0.0,0.0,0.0,0.0,0.0,0.0,0.0
1509030500530074766,22141,1509030500529835522,crazyflie/base_link,0.0,0.0,0.0,0.0,-1.0,0.0,0.0,0.0,0.0,0.0,0.0,0.0,0.0,0.00639158661619,0.0127831732324,0.0543284862376,0.0,0.0,0.0,0.0,0.0,0.0,0.0,0.0,0.0,1.17595458984,0.323327636719,9.35255126953,0.0,0.0,0.0,0.0,0.0,0.0,0.0,0.0,0.0
1509030500541393074,22142,1509030500541182806,crazyflie/base_link,0.0,0.0,0.0,0.0,-1.0,0.0,0.0,0.0,0.0,0.0,0.0,0.0,0.0,-0.0308926686449,-0.0106526443603,-0.0276968753368,0.0,0.0,0.0,0.0,0.0,0.0,0.0,0.0,0.0,1.20948486328,0.354462890625,9.33818115234,0.0,0.0,0.0,0.0,0.0,0.0,0.0,0.0,0.0
1509030500550391571,22143,1509030500550243441,crazyflie/base_link,0.0,0.0,0.0,0.0,-1.0,0.0,0.0,0.0,0.0,0.0,0.0,0.0,0.0,-0.0415453130052,-0.0596548084178,-0.0181094954125,0.0,0.0,0.0,0.0,0.0,0.0,0.0,0.0,0.0,1.19271972656,0.352067871094,9.3118359375,0.0,0.0,0.0,0.0,0.0,0.0,0.0,0.0,0.0
1509030500562098861,22144,1509030500561913112,crazyflie/base_link,0.0,0.0,0.0,0.0,-1.0,0.0,0.0,0.0,0.0,0.0,0.0,0.0,0.0,-0.0692421883421,-0.0735032460862,0.0564590151097,0.0,0.0,0.0,0.0,0.0,0.0,0.0,0.0,0.0,1.11847412109,0.3065625,9.28788574219,0.0,0.0,0.0,0.0,0.0,0.0,0.0,0.0,0.0
1509030500570829344,22145,1509030500570662848,crazyflie/base_link,0.0,0.0,0.0,0.0,-1.0,0.0,0.0,0.0,0.0,0.0,0.0,0.0,0.0,-0.0948085348068,-0.0830906260105,0.12889699676,0.0,0.0,0.0,0.0,0.0,0.0,0.0,0.0,0.0,1.00111816406,0.241896972656,9.25914550781,0.0,0.0,0.0,0.0,0.0,0.0,0.0,0.0,0.0
1509030500580359215,22146,1509030500580277535,crazyflie/base_link,0.0,0.0,0.0,0.0,-1.0,0.0,0.0,0.0,0.0,0.0,0.0,0.0,0.0,-0.0969390636789,-0.0926780059348,0.140614905556,0.0,0.0,0.0,0.0,0.0,0.0,0.0,0.0,0.0,0.893342285156,0.241896972656,9.26393554688,0.0,0.0,0.0,0.0,0.0,0.0,0.0,0.0,0.0
1509030500598011546,22147,1509030500597747200,crazyflie/base_link,0.0,0.0,0.0,0.0,-1.0,0.0,0.0,0.0,0.0,0.0,0.0,0.0,0.0,-0.0852211548825,-0.105461179167,0.126766467888,0.0,0.0,0.0,0.0,0.0,0.0,0.0,0.0,0.0,0.795146484375,0.265847167969,9.29986083984,0.0,0.0,0.0,0.0,0.0,0.0,0.0,0.0,0.0
1509030500600457268,22148,1509030500600224007,crazyflie/base_link,0.0,0.0,0.0,0.0,-1.0,0.0,0.0,0.0,0.0,0.0,0.0,0.0,0.0,-0.068176923906,-0.104395914731,0.141680169992,0.0,0.0,0.0,0.0,0.0,0.0,0.0,0.0,0.0,0.7280859375,0.294587402344,9.33818115234,0.0,0.0,0.0,0.0,0.0,0.0,0.0,0.0,0.0
1509030500611187793,22149,1509030500610974836,crazyflie/base_link,0.0,0.0,0.0,0.0,-1.0,0.0,0.0,0.0,0.0,0.0,0.0,0.0,0.0,-0.0585895439817,-0.0948085348068,0.180029689689,0.0,0.0,0.0,0.0,0.0,0.0,0.0,0.0,0.0,0.699345703125,0.301772460938,9.37650146484,0.0,0.0,0.0,0.0,0.0,0.0,0.0,0.0,0.0
1509030500621872473,22150,1509030500621721073,crazyflie/base_link,0.0,0.0,0.0,0.0,-1.0,0.0,0.0,0.0,0.0,0.0,0.0,0.0,0.0,-0.0543284862376,-0.0830906260105,0.186421276306,0.0,0.0,0.0,0.0,0.0,0.0,0.0,0.0,0.0,0.696950683594,0.320932617187,9.40524169922,0.0,0.0,0.0,0.0,0.0,0.0,0.0,0.0,0.0
1509030500630448597,22151,1509030500630223270,crazyflie/base_link,0.0,0.0,0.0,0.0,-1.0,0.0,0.0,0.0,0.0,0.0,0.0,0.0,0.0,-0.0724379816502,-0.0628506017259,0.127831732324,0.0,0.0,0.0,0.0,0.0,0.0,0.0,0.0,0.0,0.742456054688,0.332907714844,9.43158691406,0.0,0.0,0.0,0.0,0.0,0.0,0.0,0.0,0.0
1509030500640124329,22152,1509030500639965943,crazyflie/base_link,0.0,0.0,0.0,0.0,-1.0,0.0,0.0,0.0,0.0,0.0,0.0,0.0,0.0,-0.0777643038303,-0.0479368996214,0.0127831732324,0.0,0.0,0.0,0.0,0.0,0.0,0.0,0.0,0.0,0.802331542969,0.359252929688,9.46751220703,0.0,0.0,0.0,0.0,0.0,0.0,0.0,0.0,0.0
1509030500651725476,22153,1509030500651435660,crazyflie/base_link,0.0,0.0,0.0,0.0,-1.0,0.0,0.0,0.0,0.0,0.0,0.0,0.0,0.0,-0.0735032460862,-0.0468716351854,-0.0937432703708,0.0,0.0,0.0,0.0,0.0,0.0,0.0,0.0,0.0,0.819096679687,0.414338378906,9.49864746094,0.0,0.0,0.0,0.0,0.0,0.0,0.0,0.0,0.0
1509030500661299911,22154,1509030500661091920,crazyflie/base_link,0.0,0.0,0.0,0.0,-1.0,0.0,0.0,0.0,0.0,0.0,0.0,0.0,0.0,-0.068176923906,-0.0628506017259,-0.119309616836,0.0,0.0,0.0,0.0,0.0,0.0,0.0,0.0,0.0,0.78556640625,0.464633789063,9.52020263672,0.0,0.0,0.0,0.0,0.0,0.0,0.0,0.0,0.0
1509030500670369690,22155,1509030500670087968,crazyflie/base_link,0.0,0.0,0.0,0.0,-1.0,0.0,0.0,0.0,0.0,0.0,0.0,0.0,0.0,-0.034088461953,-0.06711165947,-0.0372842552611,0.0,0.0,0.0,0.0,0.0,0.0,0.0,0.0,0.0,0.711320800781,0.481398925781,9.53217773438,0.0,0.0,0.0,0.0,0.0,0.0,0.0,0.0,0.0
1509030500680030601,22156,1509030500679801604,crazyflie/base_link,0.0,0.0,0.0,0.0,-1.0,0.0,0.0,0.0,0.0,0.0,0.0,0.0,0.0,0.00532632218016,-0.0692421883421,0.0980043281149,0.0,0.0,0.0,0.0,0.0,0.0,0.0,0.0,0.0,0.6514453125,0.483793945313,9.53696777344,0.0,0.0,0.0,0.0,0.0,0.0,0.0,0.0,0.0
1509030500690975330,22157,1509030500690816371,crazyflie/base_link,0.0,0.0,0.0,0.0,-1.0,0.0,0.0,0.0,0.0,0.0,0.0,0.0,0.0,0.0266316109008,-0.0468716351854,0.215183416078,0.0,0.0,0.0,0.0,0.0,0.0,0.0,0.0,0.0,0.608334960938,0.44068359375,9.51301757812,0.0,0.0,0.0,0.0,0.0,0.0,0.0,0.0,0.0
1509030500700761007,22158,1509030500700517198,crazyflie/base_link,0.0,0.0,0.0,0.0,-1.0,0.0,0.0,0.0,0.0,0.0,0.0,0.0,0.0,0.0255663464648,-0.035153726389,0.251402406903,0.0,0.0,0.0,0.0,0.0,0.0,0.0,0.0,0.0,0.562829589844,0.380808105469,9.44595703125,0.0,0.0,0.0,0.0,0.0,0.0,0.0,0.0,0.0
1509030500710258148,22159,1509030500710030077,crazyflie/base_link,0.0,0.0,0.0,0.0,-1.0,0.0,0.0,0.0,0.0,0.0,0.0,0.0,0.0,-0.0191747598486,-0.00639158661619,0.19068233405,0.0,0.0,0.0,0.0,0.0,0.0,0.0,0.0,0.0,0.526904296875,0.342487792969,9.41003173828,0.0,0.0,0.0,0.0,0.0,0.0,0.0,0.0,0.0
1509030500719913782,22160,1509030500719710675,crazyflie/base_link,0.0,0.0,0.0,0.0,-1.0,0.0,0.0,0.0,0.0,0.0,0.0,0.0,0.0,-0.0511326929295,0.0159789665405,0.0404800485692,0.0,0.0,0.0,0.0,0.0,0.0,0.0,0.0,0.0,0.550854492188,0.313747558594,9.39326660156,0.0,0.0,0.0,0.0,0.0,0.0,0.0,0.0,0.0
1509030500734231668,22161,1509030500734043164,crazyflie/base_link,0.0,0.0,0.0,0.0,-1.0,0.0,0.0,0.0,0.0,0.0,0.0,0.0,0.0,-0.0532632218016,0.0298274042089,-0.1182443524,0.0,0.0,0.0,0.0,0.0,0.0,0.0,0.0,0.0,0.608334960938,0.3448828125,9.40284667969,0.0,0.0,0.0,0.0,0.0,0.0,0.0,0.0,0.0
1509030500740169750,22162,1509030500739998039,crazyflie/base_link,0.0,0.0,0.0,0.0,-1.0,0.0,0.0,0.0,0.0,0.0,0.0,0.0,0.0,-0.0117179087963,0.00745685105222,-0.189617069614,0.0,0.0,0.0,0.0,0.0,0.0,0.0,0.0,0.0,0.644260253906,0.387993164063,9.44835205078,0.0,0.0,0.0,0.0,0.0,0.0,0.0,0.0,0.0
1509030500750204103,22163,1509030500749952995,crazyflie/base_link,0.0,0.0,0.0,0.0,-1.0,0.0,0.0,0.0,0.0,0.0,0.0,0.0,0.0,0.0308926686449,-0.0287621397729,-0.12889699676,0.0,0.0,0.0,0.0,0.0,0.0,0.0,0.0,0.0,0.596359863281,0.450263671875,9.5034375,0.0,0.0,0.0,0.0,0.0,0.0,0.0,0.0,0.0
1509030500759800016,22164,1509030500759576568,crazyflie/base_link,0.0,0.0,0.0,0.0,-1.0,0.0,0.0,0.0,0.0,0.0,0.0,0.0,0.0,0.06711165947,-0.0639158661619,-0.00426105774413,0.0,0.0,0.0,0.0,0.0,0.0,0.0,0.0,0.0,0.510139160156,0.500559082031,9.55852294922,0.0,0.0,0.0,0.0,0.0,0.0,0.0,0.0,0.0
1509030500771092190,22165,1509030500770900338,crazyflie/base_link,0.0,0.0,0.0,0.0,-1.0,0.0,0.0,0.0,0.0,0.0,0.0,0.0,0.0,0.116113823527,-0.0521979573656,0.117179087963,0.0,0.0,0.0,0.0,0.0,0.0,0.0,0.0,0.0,0.443078613281,0.534089355469,9.60402832031,0.0,0.0,0.0,0.0,0.0,0.0,0.0,0.0,0.0
1509030500780668732,22166,1509030500780439691,crazyflie/base_link,0.0,0.0,0.0,0.0,-1.0,0.0,0.0,0.0,0.0,0.0,0.0,0.0,0.0,0.162985458713,0.0159789665405,0.174703367509,0.0,0.0,0.0,0.0,0.0,0.0,0.0,0.0,0.0,0.419128417969,0.538879394531,9.6183984375,0.0,0.0,0.0,0.0,0.0,0.0,0.0,0.0,0.0
1509030500789552552,22167,1509030500789374156,crazyflie/base_link,0.0,0.0,0.0,0.0,-1.0,0.0,0.0,0.0,0.0,0.0,0.0,0.0,0.0,0.19068233405,0.110787501347,0.148071756608,0.0,0.0,0.0,0.0,0.0,0.0,0.0,0.0,0.0,0.426313476563,0.500559082031,9.54654785156,0.0,0.0,0.0,0.0,0.0,0.0,0.0,0.0,0.0
1509030500800920629,22168,1509030500800724791,crazyflie/base_link,0.0,0.0,0.0,0.0,-1.0,0.0,0.0,0.0,0.0,0.0,0.0,0.0,0.0,0.187486540742,0.184290747433,0.0969390636789,0.0,0.0,0.0,0.0,0.0,0.0,0.0,0.0,0.0,0.45984375,0.438288574219,9.41961181641,0.0,0.0,0.0,0.0,0.0,0.0,0.0,0.0,0.0
1509030500811102695,22169,1509030500810892595,crazyflie/base_link,0.0,0.0,0.0,0.0,-1.0,0.0,0.0,0.0,0.0,0.0,0.0,0.0,0.0,0.166181252021,0.153398078789,0.0564590151097,0.0,0.0,0.0,0.0,0.0,0.0,0.0,0.0,0.0,0.500559082031,0.409548339844,9.29507080078,0.0,0.0,0.0,0.0,0.0,0.0,0.0,0.0,0.0
1509030500818931335,22170,1509030500818699981,crazyflie/base_link,0.0,0.0,0.0,0.0,-1.0,0.0,0.0,0.0,0.0,0.0,0.0,0.0,0.0,0.116113823527,0.0500674284935,0.0479368996214,0.0,0.0,0.0,0.0,0.0,0.0,0.0,0.0,0.0,0.558039550781,0.428708496094,9.22322021484,0.0,0.0,0.0,0.0,0.0,0.0,0.0,0.0,0.0
1509030500829529640,22171,1509030500829353352,crazyflie/base_link,0.0,0.0,0.0,0.0,-1.0,0.0,0.0,0.0,0.0,0.0,0.0,0.0,0.0,0.0553937506736,-0.0916127414987,0.0841558904465,0.0,0.0,0.0,0.0,0.0,0.0,0.0,0.0,0.0,0.596359863281,0.457448730469,9.21603515625,0.0,0.0,0.0,0.0,0.0,0.0,0.0,0.0,0.0
1509030500840969053,22172,1509030500840715852,crazyflie/base_link,0.0,0.0,0.0,0.0,-1.0,0.0,0.0,0.0,0.0,0.0,0.0,0.0,0.0,0.0181094954125,-0.19600865623,0.125701203452,0.0,0.0,0.0,0.0,0.0,0.0,0.0,0.0,0.0,0.570014648438,0.507744140625,9.26393554688,0.0,0.0,0.0,0.0,0.0,0.0,0.0,0.0,0.0
1509030500849898597,22173,1509030500849730470,crazyflie/base_link,0.0,0.0,0.0,0.0,-1.0,0.0,0.0,0.0,0.0,0.0,0.0,0.0,0.0,0.0159789665405,-0.21198762277,0.132092790068,0.0,0.0,0.0,0.0,0.0,0.0,0.0,0.0,0.0,0.502954101562,0.536484375,9.35494628906,0.0,0.0,0.0,0.0,0.0,0.0,0.0,0.0,0.0
1509030500864374755,22174,1509030500864116040,crazyflie/base_link,0.0,0.0,0.0,0.0,-1.0,0.0,0.0,0.0,0.0,0.0,0.0,0.0,0.0,0.0607200728538,-0.12357067458,0.0830906260105,0.0,0.0,0.0,0.0,0.0,0.0,0.0,0.0,0.0,0.447868652344,0.567619628906,9.43877197266,0.0,0.0,0.0,0.0,0.0,0.0,0.0,0.0,0.0
1509030500870466154,22175,1509030500870231794,crazyflie/base_link,0.0,0.0,0.0,0.0,-1.0,0.0,0.0,0.0,0.0,0.0,0.0,0.0,0.0,0.137419112248,0.0159789665405,-0.00745685105222,0.0,0.0,0.0,0.0,0.0,0.0,0.0,0.0,0.0,0.457448730469,0.59396484375,9.51541259766,0.0,0.0,0.0,0.0,0.0,0.0,0.0,0.0,0.0
1509030500879969127,22176,1509030500879788144,crazyflie/base_link,0.0,0.0,0.0,0.0,-1.0,0.0,0.0,0.0,0.0,0.0,0.0,0.0,0.0,0.21731394495,0.112918030219,-0.0820253615744,0.0,0.0,0.0,0.0,0.0,0.0,0.0,0.0,0.0,0.512534179688,0.615520019531,9.56570800781,0.0,0.0,0.0,0.0,0.0,0.0,0.0,0.0,0.0
1509030500889881526,22177,1509030500889653151,crazyflie/base_link,0.0,0.0,0.0,0.0,-1.0,0.0,0.0,0.0,0.0,0.0,0.0,0.0,0.0,0.256728729084,0.120374881272,-0.0926780059348,0.0,0.0,0.0,0.0,0.0,0.0,0.0,0.0,0.0,0.570014648438,0.63228515625,9.57768310547,0.0,0.0,0.0,0.0,0.0,0.0,0.0,0.0,0.0
1509030500899559878,22178,1509030500899293551,crazyflie/base_link,0.0,0.0,0.0,0.0,-1.0,0.0,0.0,0.0,0.0,0.0,0.0,0.0,0.0,0.243945555851,0.0308926686449,-0.0394147841332,0.0,0.0,0.0,0.0,0.0,0.0,0.0,0.0,0.0,0.579594726562,0.6514453125,9.57768310547,0.0,0.0,0.0,0.0,0.0,0.0,0.0,0.0,0.0
1509030500908957792,22179,1509030500908762739,crazyflie/base_link,0.0,0.0,0.0,0.0,-1.0,0.0,0.0,0.0,0.0,0.0,0.0,0.0,0.0,0.226901324875,-0.111852765783,0.0276968753368,0.0,0.0,0.0,0.0,0.0,0.0,0.0,0.0,0.0,0.55564453125,0.699345703125,9.60642333984,0.0,0.0,0.0,0.0,0.0,0.0,0.0,0.0,0.0
1509030500918598503,22180,1509030500918360233,crazyflie/base_link,0.0,0.0,0.0,0.0,-1.0,0.0,0.0,0.0,0.0,0.0,0.0,0.0,0.0,0.234358175927,-0.213052887206,0.110787501347,0.0,0.0,0.0,0.0,0.0,0.0,0.0,0.0,0.0,0.534089355469,0.723295898438,9.61121337891,0.0,0.0,0.0,0.0,0.0,0.0,0.0,0.0,0.0
1509030500930052200,22181,1509030500929882474,crazyflie/base_link,0.0,0.0,0.0,0.0,-1.0,0.0,0.0,0.0,0.0,0.0,0.0,0.0,0.0,0.264185580136,-0.218379209386,0.224770796003,0.0,0.0,0.0,0.0,0.0,0.0,0.0,0.0,0.0,0.471818847656,0.684975585938,9.55373291016,0.0,0.0,0.0,0.0,0.0,0.0,0.0,0.0,0.0
1509030500939563139,22182,1509030500939401912,crazyflie/base_link,0.0,0.0,0.0,0.0,-1.0,0.0,0.0,0.0,0.0,0.0,0.0,0.0,0.0,0.298274042089,-0.167246516457,0.317448801937,0.0,0.0,0.0,0.0,0.0,0.0,0.0,0.0,0.0,0.404758300781,0.646655273438,9.45074707031,0.0,0.0,0.0,0.0,0.0,0.0,0.0,0.0,0.0
1509030500950825195,22183,1509030500949101721,crazyflie/base_link,0.0,0.0,0.0,0.0,-1.0,0.0,0.0,0.0,0.0,0.0,0.0,0.0,0.0,0.31957933081,-0.110787501347,0.349406735018,0.0,0.0,0.0,0.0,0.0,0.0,0.0,0.0,0.0,0.390388183594,0.601149902344,9.34536621094,0.0,0.0,0.0,0.0,0.0,0.0,0.0,0.0,0.0
1509030500958994711,22184,1509030500958757247,crazyflie/base_link,0.0,0.0,0.0,0.0,-1.0,0.0,0.0,0.0,0.0,0.0,0.0,0.0,0.0,0.309991950885,-0.0990695925509,0.306796157577,0.0,0.0,0.0,0.0,0.0,0.0,0.0,0.0,0.0,0.428708496094,0.589174804688,9.29507080078,0.0,0.0,0.0,0.0,0.0,0.0,0.0,0.0,0.0
1509030500969463610,22185,1509030500969325003,crazyflie/base_link,0.0,0.0,0.0,0.0,-1.0,0.0,0.0,0.0,0.0,0.0,0.0,0.0,0.0,0.280164546676,-0.115048559091,0.198139185102,0.0,0.0,0.0,0.0,0.0,0.0,0.0,0.0,0.0,0.476608886719,0.637075195313,9.27591064453,0.0,0.0,0.0,0.0,0.0,0.0,0.0,0.0,0.0
1509030500989107891,22186,1509030500988811065,crazyflie/base_link,0.0,0.0,0.0,0.0,-1.0,0.0,0.0,0.0,0.0,0.0,0.0,0.0,0.0,0.27377296006,-0.12889699676,0.1182443524,0.0,0.0,0.0,0.0,0.0,0.0,0.0,0.0,0.0,0.543669433594,0.718505859375,9.25675048828,0.0,0.0,0.0,0.0,0.0,0.0,0.0,0.0,0.0
1509030500991508185,22187,1509030500991273196,crazyflie/base_link,0.0,0.0,0.0,0.0,-1.0,0.0,0.0,0.0,0.0,0.0,0.0,0.0,0.0,0.329166710734,-0.109722236911,0.0649811305979,0.0,0.0,0.0,0.0,0.0,0.0,0.0,0.0,0.0,0.63228515625,0.797541503906,9.29028076172,0.0,0.0,0.0,0.0,0.0,0.0,0.0,0.0,0.0
1509030500999431914,22188,1509030500999218649,crazyflie/base_link,0.0,0.0,0.0,0.0,-1.0,0.0,0.0,0.0,0.0,0.0,0.0,0.0,0.0,0.388821519152,-0.0468716351854,0.0490021640575,0.0,0.0,0.0,0.0,0.0,0.0,0.0,0.0,0.0,0.653840332031,0.833466796875,9.28309570313,0.0,0.0,0.0,0.0,0.0,0.0,0.0,0.0,0.0
1509030501009050076,22189,1509030501008803410,crazyflie/base_link,0.0,0.0,0.0,0.0,-1.0,0.0,0.0,0.0,0.0,0.0,0.0,0.0,0.0,0.401604692384,0.0372842552611,0.0894822126267,0.0,0.0,0.0,0.0,0.0,0.0,0.0,0.0,0.0,0.579594726562,0.768801269531,9.17771484375,0.0,0.0,0.0,0.0,0.0,0.0,0.0,0.0,0.0
1509030501018638886,22190,1509030501018365591,crazyflie/base_link,0.0,0.0,0.0,0.0,-1.0,0.0,0.0,0.0,0.0,0.0,0.0,0.0,0.0,0.377103610355,0.111852765783,0.152332814353,0.0,0.0,0.0,0.0,0.0,0.0,0.0,0.0,0.0,0.47900390625,0.663420410156,9.01245849609,0.0,0.0,0.0,0.0,0.0,0.0,0.0,0.0,0.0
1509030501030432214,22191,1509030501030097008,crazyflie/base_link,0.0,0.0,0.0,0.0,-1.0,0.0,0.0,0.0,0.0,0.0,0.0,0.0,0.0,0.243945555851,0.247141349159,0.186421276306,0.0,0.0,0.0,0.0,0.0,0.0,0.0,0.0,0.0,0.457448730469,0.543669433594,8.86157226562,0.0,0.0,0.0,0.0,0.0,0.0,0.0,0.0,0.0
1509030501039797474,22192,1509030501039711528,crazyflie/base_link,0.0,0.0,0.0,0.0,-1.0,0.0,0.0,0.0,0.0,0.0,0.0,0.0,0.0,0.187486540742,0.260989786828,0.172572838637,0.0,0.0,0.0,0.0,0.0,0.0,0.0,0.0,0.0,0.40236328125,0.407153320313,8.6220703125,0.0,0.0,0.0,0.0,0.0,0.0,0.0,0.0,0.0
1509030501048858474,22193,1509030501048659323,crazyflie/base_link,0.0,0.0,0.0,0.0,-1.0,0.0,0.0,0.0,0.0,0.0,0.0,0.0,0.0,0.13954964112,0.232227647055,0.142745434428,0.0,0.0,0.0,0.0,0.0,0.0,0.0,0.0,0.0,0.47900390625,0.285007324219,8.4687890625,0.0,0.0,0.0,0.0,0.0,0.0,0.0,0.0,0.0
1509030501058528664,22194,1509030501058265905,crazyflie/base_link,0.0,0.0,0.0,0.0,-1.0,0.0,0.0,0.0,0.0,0.0,0.0,0.0,0.0,-0.0308926686449,0.172572838637,0.066046395034,0.0,0.0,0.0,0.0,0.0,0.0,0.0,0.0,0.0,0.603544921875,0.294587402344,8.38256835938,0.0,0.0,0.0,0.0,0.0,0.0,0.0,0.0,0.0
1509030501069082605,22195,1509030501068898512,crazyflie/base_link,0.0,0.0,0.0,0.0,-1.0,0.0,0.0,0.0,0.0,0.0,0.0,0.0,0.0,-0.0948085348068,0.0969390636789,-0.0362189908251,0.0,0.0,0.0,0.0,0.0,0.0,0.0,0.0,0.0,0.780776367187,0.3065625,8.35143310547,0.0,0.0,0.0,0.0,0.0,0.0,0.0,0.0,0.0
